Unnamed: 1	#Wave	Unnamed: 3	#Intensity
699.292969	4026.161865		
700.611694	3978.475586		
701.93042	3978.293945		
703.249146	4017.634277		
704.567871	4032.060059		
705.886597	3997.966309		
707.205322	3989.325928		
708.524048	4168.293457		
709.842773	4095.849854		
711.161499	4156.080078		
712.480225	4091.119629		
713.79895	4051.719727		
715.117676	4071.222412		
716.436401	4069.681641		
717.755127	4066.965332		
719.073853	4014.061523		
720.392578	4079.521729		
721.711304	4099.01416		
723.030029	4100.725098		
724.348755	4097.021484		
725.66748	4111.933105		
726.986206	4191.868164		
728.304932	4154.395508		
729.623657	4059.444824		
730.942383	4148.30957		
732.261108	4202.001465		
733.579834	4198.822266		
734.89856	4176.148438		
736.217285	4142.62793		
737.536011	4191.429688		
738.854736	4185.025391		
740.173462	4183.380371		
741.492188	4199.128418		
742.810913	4152.850098		
744.129639	4112.321289		
745.448364	4173.282715		
746.76709	4183.276367		
748.085815	4161.257813		
749.404541	4167.406738		
750.723267	4169.160156		
752.041992	4207.942871		
753.360718	4217.460938		
754.679443	4199.037598		
755.998169	4283.764648		
757.316895	4291.552734		
758.63562	4253.737305		
759.954346	4191.285645		
761.273071	4246.354492		
762.591797	4275.393066		
763.910522	4259.54248		
765.229248	4296.791992		
766.547974	4255.52832		
767.866699	4257.631836		
769.185425	4261.014648		
770.50415	4297.352539		
771.822876	4325.788086		
773.141602	4330.786133		
774.460327	4301.410645		
775.779053	4239.879883		
777.097778	4323.500977		
778.416504	4280.928711		
779.735229	4305.746582		
781.053955	4309.240723		
782.372681	4288.098145		
783.691406	4311.114746		
785.010132	4383.899414		
786.328857	4341.189453		
787.647583	4383.408691		
788.966309	4314.595703		
790.285034	4321.734375		
791.60376	4343.257813		
792.922485	4399.000488		
794.241211	4465.333496		
795.559937	4437.879883		
796.878662	4316.60498		
798.197388	4422.094727		
799.516113	4393.117676		
800.834839	4404.463379		
802.153564	4468.185059		
803.47229	4506.723633		
804.791016	4485.032715		
806.109741	4468.865234		
807.428467	4455.172363		
808.747192	4380.416504		
810.065918	4430.427734		
811.384644	4419.938965		
812.703369	4410.881348		
814.022095	4452.958984		
815.34082	4507.001953		
816.659546	4509.4375		
817.978271	4476.976074		
819.296997	4450.031738		
820.615723	4534.687988		
821.934448	4567.234375		
823.253174	4535.177246		
824.571899	4500.677734		
825.890625	4524.715332		
827.209351	4614.442871		
828.528076	4573.234375		
829.846802	4477.58252		
831.165527	4513.162109		
832.484253	4563.605469		
833.802979	4547.582031		
835.121704	4532.64209		
836.44043	4592.240234		
837.759155	4571.471191		
839.077881	4535.94873		
840.396606	4589.729004		
841.715332	4552.507813		
843.034058	4572.04834		
844.352783	4627.879395		
845.671509	4636.730469		
846.990234	4591.608398		
848.30896	4593.784668		
849.627686	4578.527832		
850.946411	4565.987793		
852.265137	4607.952637		
853.583862	4608.868164		
854.902588	4575.275391		
856.221313	4570.700195		
857.540039	4623.173828		
858.858765	4669.854492		
860.17749	4679.350586		
861.496216	4616.885742		
862.814941	4687.408203		
864.133667	4664.359863		
865.452393	4599.860352		
866.771118	4574.365723		
868.089844	4573.995605		
869.408569	4566.644043		
870.727295	4669.681152		
872.046021	4614.980957		
873.364746	4630.107422		
874.683472	4710.962402		
876.002197	4696.850098		
877.320923	4637.063477		
878.639648	4638.737305		
879.958374	4640.964844		
881.2771	4721.992188		
882.595825	4747.665527		
883.914551	4731.333496		
885.233276	4811.657715		
886.552002	4794.51709		
887.870728	4691.95166		
889.189453	4691.640137		
890.508179	4844.747559		
891.826904	4794.499512		
893.14563	4723.274414		
894.464355	4803.758789		
895.783081	4770.466797		
897.101807	4838.697754		
898.420532	4883.569336		
899.739258	4859.32666		
901.057983	4884.996582		
902.376709	4903.591309		
903.695435	4782.112793		
905.01416	4769.016602		
906.332886	4833.327637		
907.651611	4886.43457		
908.970337	4896.713867		
910.289063	4900.021484		
911.607788	4931.673828		
912.926514	4971.585449		
914.245239	4984.470215		
915.563965	4963.115234		
916.88269	4809.757813		
918.201416	4934.265625		
919.520142	4921.461914		
920.838867	4950.5625		
922.157593	5054.461426		
923.476318	4990.212891		
924.795044	4894.84668		
926.11377	4883.788086		
927.432495	4904.645508		
928.751221	4957.612305		
930.069946	5029.021973		
931.388672	5015.861328		
932.707397	5002.404785		
934.026123	5014.336914		
935.344849	4930.910645		
936.663574	4890.845703		
937.9823	5007.475098		
939.301025	4959.998047		
940.619751	5003.280762		
941.938477	5019.606934		
943.257202	4996.777832		
944.575928	4981.900391		
945.894653	5006.350098		
947.213379	5046.126953		
948.532104	5019.63623		
949.85083	5020.448242		
951.169556	5025.31543		
952.488281	5038.737305		
953.807007	5117.699707		
955.125732	5110.608398		
956.444458	5038.361328		
957.763184	5038.983887		
959.081909	5054.276367		
960.400635	5041.076172		
961.71936	5079.226074		
963.038086	5026.844727		
964.356812	5035.439453		
965.675537	5125.491699		
966.994263	5124.461426		
968.312988	5065.987305		
969.631714	5070.868652		
970.950439	5001.38623		
972.269165	5026.342773		
973.587891	5066.144043		
974.906616	5069.976563		
976.225342	5131.217285		
977.544067	5186.585449		
978.862793	5144.297852		
980.181519	5072.986328		
981.500244	5072.275391		
982.81897	5060.508789		
984.137695	5081.288086		
985.456421	5122.711426		
986.775146	5228.992676		
988.093872	5211.987305		
989.412598	5163.062988		
990.731323	5105.240234		
992.050049	5156.834961		
993.368774	5294.829102		
994.6875	5234.714844		
996.006226	5271.666504		
997.324951	5341.882813		
998.643677	5296.800781		
999.962402	5246.625977		
1001.281128	5211.01709		
1002.599854	5226.40625		
1003.918579	5267.153809		
1005.237305	5276.932129		
1006.55603	5260.15625		
1007.874756	5300.661133		
1009.193481	5417.94873		
1010.512207	5383.208008		
1011.830933	5293.45752		
1013.149658	5235.810059		
1014.468384	5269.714355		
1015.787109	5321.777344		
1017.105835	5349.724121		
1018.424561	5367.237793		
1019.743286	5314.19043		
1021.062012	5391.314941		
1022.380737	5323.946777		
1023.699463	5338.850098		
1025.018188	5301.895996		
1026.336914	5396.640625		
1027.65564	5445.803711		
1028.974365	5388.728516		
1030.293091	5346.746094		
1031.611816	5343.36377		
1032.930542	5375.108398		
1034.249268	5412.480469		
1035.567993	5365.73877		
1036.886719	5309.732422		
1038.205444	5370.337402		
1039.52417	5439.394043		
1040.842896	5439.571289		
1042.161621	5398.360352		
1043.480347	5365.699707		
1044.799072	5345.208496		
1046.117798	5395.123535		
1047.436523	5403.63916		
1048.755249	5357.577148		
1050.073975	5419.190918		
1051.3927	5408.916504		
1052.711426	5404.94873		
1054.030151	5425.409668		
1055.348877	5418.206543		
1056.667603	5405.397461		
1057.986328	5428.946289		
1059.305054	5352.23291		
1060.623779	5538.456543		
1061.942505	5495.744629		
1063.26123	5483.723633		
1064.579956	5438.364258		
1065.898682	5481.666016		
1067.217407	5522.775879		
1068.536133	5475.181152		
1069.854858	5493.677246		
1071.173584	5547.17041		
1072.49231	5433.030762		
1073.811035	5484.617188		
1075.129761	5534.852539		
1076.448486	5537.024902		
1077.767212	5570.895508		
1079.085938	5559.268555		
1080.404663	5567.192383		
1081.723389	5610.823242		
1083.042114	5576.181641		
1084.36084	5626.304199		
1085.679565	5618.459473		
1086.998291	5514.593262		
1088.317017	5559.371094		
1089.635742	5702.38916		
1090.954468	5754.963379		
1092.273193	5672.442383		
1093.591919	5622.000977		
1094.910645	5687.400391		
1096.22937	5737.581543		
1097.548096	5706.80127		
1098.866821	5740.617188		
1100.185547	5664.280273		
1101.504272	5769.062988		
1102.822998	5756.485352		
1104.141724	5742.209961		
1105.460449	5755.470703		
1106.779175	5783.534668		
1108.0979	5789.087891		
1109.416626	5762.921387		
1110.735352	5746.787598		
1112.054077	5697.318359		
1113.372803	5820.871582		
1114.691528	5654.350098		
1116.010254	5659.159668		
1117.328979	5621.185547		
1118.647705	5694.522461		
1119.966431	5783.484375		
1121.285156	5770.85791		
1122.603882	5751.208496		
1123.922607	5823.318848		
1125.241333	5796.255371		
1126.560059	5767.92627		
1127.878784	5703.473633		
1129.19751	5772.276367		
1130.516235	5816.32959		
1131.834961	5883.615723		
1133.153687	5893.774902		
1134.472412	5878.968262		
1135.791138	5873.438477		
1137.109863	5866.147461		
1138.428589	5840.461426		
1139.747314	5721.437012		
1141.06604	5879.712891		
1142.384766	5804.13916		
1143.703491	5783.744629		
1145.022217	5814.395996		
1146.340942	5789.921875		
1147.659668	5834.005859		
1148.978394	5877.620605		
1150.297119	5908.026855		
1151.615845	5926.709961		
1152.93457	5795.603516		
1154.253296	5843.483398		
1155.572021	5794.40625		
1156.890747	5789.081543		
1158.209473	5795.094727		
1159.528198	5855.342285		
1160.846924	5855.44043		
1162.165649	5853.55957		
1163.484375	5934.754883		
1164.803101	5957.34668		
1166.121826	5846.230957		
1167.440552	5858.151367		
1168.759277	5955.829102		
1170.078003	5867.285156		
1171.396729	5880.84082		
1172.715454	6013.079102		
1174.03418	5903.250488		
1175.352905	5939.990723		
1176.671631	5963.693848		
1177.990356	5971.624023		
1179.309082	6014.760742		
1180.627808	6023.012695		
1181.946533	5964.19043		
1183.265259	5945.274902		
1184.583984	6007.826172		
1185.90271	5981.937012		
1187.221436	6021.005859		
1188.540161	5999.165527		
1189.858887	5956.032715		
1191.177612	5984.882813		
1192.496338	6038.875977		
1193.815063	6091.068359		
1195.133789	6102.836426		
1196.452515	6052.384277		
1197.77124	6037.207031		
1199.089966	6042.972168		
1200.408691	6129.144531		
1201.727417	6177.679199		
1203.046143	6115.616699		
1204.364868	6154.877441		
1205.683594	6155.053711		
1207.002319	6086.516113		
1208.321045	6112.129395		
1209.639771	6156.208008		
1210.958496	6112.95166		
1212.277222	6101.569824		
1213.595947	6152.440918		
1214.914673	6286.15625		
1216.233398	6194.893555		
1217.552124	6205.071289		
1218.87085	6191.14502		
1220.189575	6313.408203		
1221.508301	6231.150391		
1222.827026	6185.511719		
1224.145752	6181.638184		
1225.464478	6189.677734		
1226.783203	6258.304688		
1228.101929	6287.251953		
1229.420654	6195.596191		
1230.73938	6308.518555		
1232.058105	6328.265625		
1233.376831	6223.766113		
1234.695557	6243.632813		
1236.014282	6242.006348		
1237.333008	6172.05127		
1238.651733	6219.47168		
1239.970459	6302.694336		
1241.289185	6301.939453		
1242.60791	6260.004883		
1243.926636	6246.608887		
1245.245361	6246.703613		
1246.564087	6276.441895		
1247.882813	6163.965332		
1249.201538	6278.90332		
1250.520264	6281.160156		
1251.838989	6329.961914		
1253.157715	6318.738281		
1254.47644	6207.834473		
1255.795166	6224.003418		
1257.113892	6277.279297		
1258.432617	6283.531738		
1259.751343	6261.095703		
1261.070068	6179.748535		
1262.388794	6229.446289		
1263.70752	6346.912598		
1265.026245	6291.536133		
1266.344971	6221.634277		
1267.663696	6429.567871		
1268.982422	6288.567871		
1270.301147	6337.466797		
1271.619873	6370.963379		
1272.938599	6318.30957		
1274.257324	6337.590332		
1275.57605	6349.76123		
1276.894775	6297.488281		
1278.213501	6379.558105		
1279.532227	6413.021973		
1280.850952	6510.523926		
1282.169678	6365.786133		
1283.488403	6535.349121		
1284.807129	6401.455078		
1286.125854	6457.348145		
1287.44458	6488.808594		
1288.763306	6453.528809		
1290.082031	6436.777344		
1291.400757	6438.400879		
1292.719482	6472.153809		
1294.038208	6490.499512		
1295.356934	6411.116699		
1296.675659	6427.290039		
1297.994385	6519.794922		
1299.31311	6545.478027		
1300.631836	6377.463379		
1301.950562	6539.058594		
1303.269287	6584.11084		
1304.588013	6610.894043		
1305.906738	6625.279297		
1307.225464	6676.842285		
1308.544189	6597.402344		
1309.862915	6579.472656		
1311.181641	6658.029297		
1312.500366	6602.442871		
1313.819092	6602.181152		
1315.137817	6587.572266		
1316.456543	6635.788086		
1317.775269	6786.177734		
1319.093994	6813.454102		
1320.41272	6600.447754		
1321.731445	6624.746582		
1323.050171	6590.032227		
1324.368896	6547.459473		
1325.687622	6653.983398		
1327.006348	6663.947266		
1328.325073	6588.314941		
1329.643799	6616.157227		
1330.962524	6661.279785		
1332.28125	6645.431641		
1333.599976	6648.17627		
1334.918701	6649.089355		
1336.237427	6635.665039		
1337.556152	6815.562012		
1338.874878	6802.192871		
1340.193604	6798.449219		
1341.512329	6736.648926		
1342.831055	6715.655762		
1344.14978	6750.752441		
1345.468506	6732.060059		
1346.787231	6724.73584		
1348.105957	6745.02002		
1349.424683	6734.602051		
1350.743408	6748.149414		
1352.062134	6718.256348		
1353.380859	6693.961426		
1354.699585	6780.830078		
1356.018311	6816.581543		
1357.337036	6700.895996		
1358.655762	6781.012695		
1359.974487	6777.932129		
1361.293213	6815.828613		
1362.611938	6763.929688		
1363.930664	6705.432617		
1365.24939	6744.738281		
1366.568115	6826.532715		
1367.886841	6846.586426		
1369.205566	6826.938477		
1370.524292	6835.51123		
1371.843018	6820.380371		
1373.161743	6837.476563		
1374.480469	6729.847168		
1375.799194	6725.998047		
1377.11792	6872.145508		
1378.436646	6807.550781		
1379.755371	6842.125		
1381.074097	6914.680176		
1382.392822	6925.429688		
1383.711548	6828.151367		
1385.030273	6829.046875		
1386.348999	6902.600586		
1387.667725	6901.214355		
1388.98645	6893.791504		
1390.305176	6953.489746		
1391.623901	6969.348145		
1392.942627	6960.82373		
1394.261353	6907.22998		
1395.580078	6989.475098		
1396.898804	6937.390625		
1398.217529	6945.145996		
1399.536255	6909.36377		
1400.85498	6997.532227		
1402.173706	6955.820801		
1403.492432	7071.379883		
1404.811157	7064.694336		
1406.129883	7029.726563		
1407.448608	7009.027832		
1408.767334	6999.519531		
1410.08606	7029.891602		
1411.404785	7031.199707		
1412.723511	7065.782227		
1414.042236	7022.36377		
1415.360962	6989.46875		
1416.679688	7113.42627		
1417.998413	7079.479004		
1419.317139	7120.292969		
1420.635864	7181.949219		
1421.95459	7133.48291		
1423.273315	7090.466797		
1424.592041	7081.566895		
1425.910767	7089.561035		
1427.229492	7133.723145		
1428.548218	7138.697266		
1429.866943	7148.611328		
1431.185669	7126.630371		
1432.504395	7118.251465		
1433.82312	7224.814941		
1435.141846	7112.728516		
1436.460571	7181.072754		
1437.779297	7267.119141		
1439.098022	7250.952148		
1440.416748	7139.273438		
1441.735474	7248.902832		
1443.054199	7091.890625		
1444.372925	7197.516602		
1445.69165	7184.596191		
1447.010376	7164.420898		
1448.329102	7104.665527		
1449.647827	7168.541504		
1450.966553	7295.347656		
1452.285278	7326.467773		
1453.604004	7225.89209		
1454.922729	7133.081055		
1456.241455	7161.410645		
1457.560181	7207.90332		
1458.878906	7247.695801		
1460.197632	7234.625488		
1461.516357	7303.024902		
1462.835083	7409.545898		
1464.153809	7163.344238		
1465.472534	7315.55127		
1466.79126	7204.645508		
1468.109985	7313.334961		
1469.428711	7255.044922		
1470.747437	7236.055664		
1472.066162	7326.324219		
1473.384888	7305.769043		
1474.703613	7302.047363		
1476.022339	7293.804199		
1477.341064	7292.349121		
1478.65979	7294.043457		
1479.978516	7269.605957		
1481.297241	7373.816406		
1482.615967	7428.816895		
1483.934692	7340.654297		
1485.253418	7205.206543		
1486.572144	7391.939453		
1487.890869	7289.048828		
1489.209595	7368.70752		
1490.52832	7312.92334		
1491.847046	7240.239258		
1493.165771	7267.562012		
1494.484497	7390.914063		
1495.803223	7351.85791		
1497.121948	7406.890625		
1498.440674	7434.946289		
1499.759399	7377.059082		
1501.078125	7378.722168		
1502.396851	7417.62793		
1503.715576	7437.034668		
1505.034302	7418.394043		
1506.353027	7390.87207		
1507.671753	7448.89502		
1508.990479	7359.329102		
1510.309204	7315.983398		
1511.62793	7553.172363		
1512.946655	7420.611816		
1514.265381	7459.284668		
1515.584106	7632.103516		
1516.902832	7514.735352		
1518.221558	7441.957031		
1519.540283	7534.9375		
1520.859009	7418.183105		
1522.177734	7532.555664		
1523.49646	7586.248535		
1524.815186	7619.76123		
1526.133911	7518.33252		
1527.452637	7490.87207		
1528.771362	7520.331055		
1530.090088	7505.878906		
1531.408813	7517.326172		
1532.727539	7519.666504		
1534.046265	7521.859375		
1535.36499	7594.007813		
1536.683716	7571.561523		
1538.002441	7545.108398		
1539.321167	7678.64502		
1540.639893	7708.464844		
1541.958618	7737.438965		
1543.277344	7612.983398		
1544.596069	7564.119141		
1545.914795	7541.773926		
1547.233521	7632.668945		
1548.552246	7657.90918		
1549.870972	7722.421387		
1551.189697	7648.150391		
1552.508423	7567.738281		
1553.827148	7619.410156		
1555.145874	7685.788086		
1556.4646	7690.835938		
1557.783325	7649.73291		
1559.102051	7704.775879		
1560.420776	7729.054199		
1561.739502	7682.074707		
1563.058228	7719.126953		
1564.376953	7728.986816		
1565.695679	7815.686523		
1567.014404	7711.625		
1568.33313	7742.632324		
1569.651855	7663.835938		
1570.970581	7640.183105		
1572.289307	7659.710449		
1573.608032	7719.424805		
1574.926758	7727.707031		
1576.245483	7646.01416		
1577.564209	7600.81543		
1578.882935	7716.525391		
1580.20166	7775.519531		
1581.520386	7660.480469		
1582.839111	7765.841797		
1584.157837	7807.635742		
1585.476563	7731.582031		
1586.795288	7667.461914		
1588.114014	7712.242676		
1589.432739	7769.397949		
1590.751465	7848.445801		
1592.07019	7789.695313		
1593.388916	7720.803711		
1594.707642	7797.664551		
1596.026367	7766.585449		
1597.345093	7809.179199		
1598.663818	7733.056641		
1599.982544	7789.035645		
1601.30127	7854.836914		
1602.619995	7901.881836		
1603.938721	7799.570313		
1605.257446	7865.642578		
1606.576172	7857.555664		
1607.894897	7660.434082		
1609.213623	7816.499023		
1610.532349	7803.329102		
1611.851074	7874.592285		
1613.1698	7789.671875		
1614.488525	7883.70166		
1615.807251	7943.628418		
1617.125977	8009.071289		
1618.444702	8022.573242		
1619.763428	8065.670898		
1621.082153	8037.078125		
1622.400879	8016.002441		
1623.719604	8029.002441		
1625.03833	7973.375		
1626.357056	7940.234863		
1627.675781	7968.553711		
1628.994507	7962.813965		
1630.313232	7996.45166		
1631.631958	8074.877441		
1632.950684	8083.578125		
1634.269409	8082.603516		
1635.588135	8002.175293		
1636.90686	7973.865234		
1638.225586	8042.905762		
1639.544312	8059.637207		
1640.863037	8088.088867		
1642.181763	8086.168945		
1643.500488	8001.460449		
1644.819214	8108.47168		
1646.137939	8131.148438		
1647.456665	7976.746582		
1648.775391	8126.688965		
1650.094116	8148.96582		
1651.412842	8068.271484		
1652.731567	8105.068359		
1654.050293	8111.19043		
1655.369019	8147.203613		
1656.687744	8190.343262		
1658.00647	8172.284668		
1659.325195	8164.125977		
1660.643921	8205.163086		
1661.962646	8277.331055		
1663.281372	8254.694336		
1664.600098	8207.285156		
1665.918823	8187.080078		
1667.237549	8225.604492		
1668.556274	8263.922852		
1669.875	8231.601563		
1671.193726	8225.368164		
1672.512451	8252.574219		
1673.831177	8217.603516		
1675.149902	8174.507324		
1676.468628	8220.511719		
1677.787354	8248.616211		
1679.106079	8238.558594		
1680.424805	8257.740234		
1681.74353	8225.165039		
1683.062256	8286.359375		
1684.380981	8325.171875		
1685.699707	8315.444336		
1687.018433	8293.344727		
1688.337158	8321.986328		
1689.655884	8233.888672		
1690.974609	8219.138672		
1692.293335	8062.456055		
1693.612061	8200.960938		
1694.930786	8208.716797		
1696.249512	8281.011719		
1697.568237	8303.634766		
1698.886963	8319.453125		
1700.205688	8294.498047		
1701.524414	8285.114258		
1702.84314	8296.730469		
1704.161865	8456.749023		
1705.480591	8281.125		
1706.799316	8310.764648		
1708.118042	8412.012695		
1709.436768	8378.379883		
1710.755493	8370.484375		
1712.074219	8317.576172		
1713.392944	8264.204102		
1714.71167	8335.516602		
1716.030396	8321.740234		
1717.349121	8283.526367		
1718.667847	8370.381836		
1719.986572	8378.447266		
1721.305298	8334.042969		
1722.624023	8353.260742		
1723.942749	8333.384766		
1725.261475	8339.699219		
1726.5802	8386.981445		
1727.898926	8378.273438		
1729.217651	8346.632813		
1730.536377	8330.645508		
1731.855103	8354.147461		
1733.173828	8347.6875		
1734.492554	8406.131836		
1735.811279	8547.239258		
1737.130005	8368.029297		
1738.44873	8461.935547		
1739.767456	8404.120117		
1741.086182	8407.602539		
1742.404907	8477.568359		
1743.723633	8487.464844		
1745.042358	8490.831055		
1746.361084	8527.069336		
1747.67981	8512.974609		
1748.998535	8423.205078		
1750.317261	8476.612305		
1751.635986	8413.740234		
1752.954712	8593.302734		
1754.273438	8586.555664		
1755.592163	8537.666992		
1756.910889	8509.078125		
1758.229614	8454.200195		
1759.54834	8713.480469		
1760.867065	8609.305664		
1762.185791	8557.557617		
1763.504517	8548.170898		
1764.823242	8533.644531		
1766.141968	8521.039063		
1767.460693	8488.958008		
1768.779419	8582.543945		
1770.098145	8621.644531		
1771.41687	8693.570313		
1772.735596	8623.211914		
1774.054321	8665.006836		
1775.373047	8612.040039		
1776.691772	8552.929688		
1778.010498	8616.795898		
1779.329224	8611.542969		
1780.647949	8587.220703		
1781.966675	8564.816406		
1783.2854	8585.704102		
1784.604126	8703.038086		
1785.922852	8758.709961		
1787.241577	8727.006836		
1788.560303	8703.661133		
1789.879028	8736.236328		
1791.197754	8714.993164		
1792.516479	8673.949219		
1793.835205	8665.637695		
1795.153931	8662.931641		
1796.472656	8727.537109		
1797.791382	8684.188477		
1799.110107	8610.900391		
1800.428833	8537.210938		
1801.747559	8536.209961		
1803.066284	8665.671875		
1804.38501	8746.360352		
1805.703735	8608.602539		
1807.022461	8621.432617		
1808.341187	8698.62207		
1809.659912	8727.019531		
1810.978638	8835.700195		
1812.297363	8725.132813		
1813.616089	8783.452148		
1814.934814	8612.176758		
1816.25354	8702.371094		
1817.572266	8857.045898		
1818.890991	8561.280273		
1820.209717	8667.361328		
1821.528442	8727.549805		
1822.847168	8702.90332		
1824.165894	8756.104492		
1825.484619	8675.285156		
1826.803345	8582.741211		
1828.12207	8715.168945		
1829.440796	8733.097656		
1830.759521	8660.493164		
1832.078247	8859.208008		
1833.396973	8712.380859		
1834.715698	8778.625977		
1836.034424	8656.87207		
1837.353149	8714.599609		
1838.671875	8712.513672		
1839.990601	8839.768555		
1841.309326	8760.519531		
1842.628052	8885.932617		
1843.946777	8717.770508		
1845.265503	8816.926758		
1846.584229	8836.962891		
1847.902954	8596.688477		
1849.22168	8893.883789		
1850.540405	8905.37793		
1851.859131	8855.754883		
1853.177856	8761.474609		
1854.496582	8869.617188		
1855.815308	8884.277344		
1857.134033	8919.552734		
1858.452759	8865.507813		
1859.771484	8895.966797		
1861.09021	8870.375		
1862.408936	8737.239258		
1863.727661	8899.581055		
1865.046387	8946.494141		
1866.365112	8940.450195		
1867.683838	8715.90625		
1869.002563	8913.876953		
1870.321289	8911.492188		
1871.640015	8822.977539		
1872.95874	8961.802734		
1874.277466	9032.454102		
1875.596191	8984.833008		
1876.914917	8859.280273		
1878.233643	8903.013672		
1879.552368	9082.25		
1880.871094	8977.995117		
1882.189819	9022.558594		
1883.508545	9033.625		
1884.827271	9011.232422		
1886.145996	9042.041992		
1887.464722	9068.956055		
1888.783447	9082.959961		
1890.102173	9031.692383		
1891.420898	8960.745117		
1892.739624	9228.173828		
1894.05835	9047.268555		
1895.377075	9063.894531		
1896.695801	9222.975586		
1898.014526	8978.972656		
1899.333252	8980.49707		
1900.651978	9084.976563		
1901.970703	9073.336914		
1903.289429	9090.194336		
1904.608154	9147.330078		
1905.92688	9186.882813		
1907.245605	9130.390625		
1908.564331	9264.724609		
1909.883057	9145.061523		
1911.201782	8996.790039		
1912.520508	9134.771484		
1913.839233	9188.765625		
1915.157959	9288.996094		
1916.476685	9116.863281		
1917.79541	9130.323242		
1919.114136	9196.113281		
1920.432861	9101.416992		
1921.751587	9195.774414		
1923.070313	9154.338867		
1924.389038	9137.000977		
1925.707764	9175.944336		
1927.026489	9119.042969		
1928.345215	9241.144531		
1929.66394	9236.208008		
1930.982666	9237.451172		
1932.301392	9203.697266		
1933.620117	9253.117188		
1934.938843	9148.461914		
1936.257568	9186.402344		
1937.576294	9180.725586		
1938.89502	9212.666016		
1940.213745	9156.609375		
1941.532471	9304.78418		
1942.851196	9125.401367		
1944.169922	9269.895508		
1945.488647	9177.81543		
1946.807373	9306.325195		
1948.126099	9123.726563		
1949.444824	9183.105469		
1950.76355	9201.101563		
1952.082275	9095.675781		
1953.401001	9166.392578		
1954.719727	9306.116211		
1956.038452	9404.323242		
1957.357178	9165.560547		
1958.675903	9206.612305		
1959.994629	9310.248047		
1961.313354	9218.167969		
1962.63208	9254.833984		
1963.950806	9336.098633		
1965.269531	9232.489258		
1966.588257	9275.170898		
1967.906982	9299.00293		
1969.225708	9301.03125		
1970.544434	9261.853516		
1971.863159	9357.764648		
1973.181885	9342.316406		
1974.50061	9410.580078		
1975.819336	9396.491211		
1977.138062	9307.583008		
1978.456787	9292.374023		
1979.775513	9267.912109		
1981.094238	9299.793945		
1982.412964	9347.28418		
1983.731689	9372.238281		
1985.050415	9369.293945		
1986.369141	9402.067383		
1987.687866	9269.660156		
1989.006592	9407.053711		
1990.325317	9501.361328		
1991.644043	9434.152344		
1992.962769	9411.954102		
1994.281494	9438.53125		
1995.60022	9524.166992		
1996.918945	9532.058594		
1998.237671	9545.291992		
1999.556396	9565.226563		
2000.875122	9580.772461		
2002.193848	9499.852539		
2003.512573	9556.155273		
2004.831299	9575.03418		
2006.150024	9569.839844		
2007.46875	9626.21875		
2008.787476	9535.911133		
2010.106201	9490.114258		
2011.424927	9606.494141		
2012.743652	9662.568359		
2014.062378	9625.944336		
2015.381104	9659.056641		
2016.699829	9747.669922		
2018.018555	9683.499023		
2019.33728	9695.571289		
2020.656006	9690.466797		
2021.974731	9607.379883		
2023.293457	9736.636719		
2024.612183	9479.076172		
2025.930908	9490.525391		
2027.249634	9528.745117		
2028.568359	9671.418945		
2029.887085	9696.62207		
2031.205811	9575.439453		
2032.524536	9706.763672		
2033.843262	9685.378906		
2035.161987	9719.695313		
2036.480713	9681.753906		
2037.799438	9540.136719		
2039.118164	9616.369141		
2040.43689	9544.420898		
2041.755615	9659.366211		
2043.074341	9708.223633		
2044.393066	9415.111328		
2045.711792	9587.323242		
2047.030518	9620.072266		
2048.349121	9608.180664		
2049.667725	9582.65625		
2050.986328	9622.121094		
2052.304932	9552.018555		
2053.623535	9547.270508		
2054.942139	9530.357422		
2056.260742	9645.267578		
2057.579346	9793.794922		
2058.897949	9666.897461		
2060.216553	9556.530273		
2061.535156	9680.889648		
2062.85376	9621.514648		
2064.172363	9737.204102		
2065.490967	9660.730469		
2066.80957	9655.724609		
2068.128174	9702.87793		
2069.446777	9643.583008		
2070.765381	9686.461914		
2072.083984	9711.147461		
2073.402588	9668.177734		
2074.721191	9614.548828		
2076.039795	9711.352539		
2077.358398	9836.806641		
2078.677002	9795.362305		
2079.995605	9679.291016		
2081.314209	9662.589844		
2082.632813	9655.080078		
2083.951416	9701.37793		
2085.27002	9719.161133		
2086.588623	9720.75		
2087.907227	9662.915039		
2089.22583	9693.647461		
2090.544434	9736.560547		
2091.863037	9784.048828		
2093.181641	9661.046875		
2094.500244	9665.733398		
2095.818848	9569.493164		
2097.137451	9690.378906		
2098.456055	9694.984375		
2099.774658	9772.339844		
2101.093262	9715.15625		
2102.411865	9645.329102		
2103.730469	9795.791992		
2105.049072	9777.141602		
2106.367676	9872.951172		
2107.686279	9746.520508		
2109.004883	9795.576172		
2110.323486	9789.960938		
2111.64209	9796.69043		
2112.960693	9790.474609		
2114.279297	9790.717773		
2115.5979	9763.525391		
2116.916504	9816.262695		
2118.235107	9781.649414		
2119.553711	9802.870117		
2120.872314	9806.928711		
2122.190918	9838.719727		
2123.509521	9907.481445		
2124.828125	9923.99707		
2126.146729	9867.710938		
2127.465332	9878.352539		
2128.783936	9849.938477		
2130.102539	9861.568359		
2131.421143	9821.197266		
2132.739746	9839.088867		
2134.05835	9876.087891		
2135.376953	9986.880859		
2136.695557	9846.556641		
2138.01416	9816.985352		
2139.332764	9855.990234		
2140.651367	9833.976563		
2141.969971	9712.046875		
2143.288574	9896.597656		
2144.607178	9924.801758		
2145.925781	9947.383789		
2147.244385	9866.180664		
2148.562988	9963.12207		
2149.881592	9947.169922		
2151.200195	9867.894531		
2152.518799	9790.804688		
2153.837402	9896.016602		
2155.156006	9922.955078		
2156.474609	9911.429688		
2157.793213	9863.073242		
2159.111816	9865.162109		
2160.43042	9889.183594		
2161.749023	9895.009766		
2163.067627	9895.791992		
2164.38623	9961.383789		
2165.704834	9862.291992		
2167.023438	9964.421875		
2168.342041	9995.239258		
2169.660645	9929.820313		
2170.979248	9913.761719		
2172.297852	9879.577148		
2173.616455	9912.458008		
2174.935059	10044.868164		
2176.253662	9873.819336		
2177.572266	9969.794922		
2178.890869	9722.613281		
2180.209473	10089.092773		
2181.528076	9906.894531		
2182.84668	9982.225586		
2184.165283	9864.602539		
2185.483887	9896.240234		
2186.80249	9854.182617		
2188.121094	9913.866211		
2189.439697	9942.356445		
2190.758301	9895.920898		
2192.076904	9887.348633		
2193.395508	9937.862305		
2194.714111	9898.145508		
2196.032715	9798.544922		
2197.351318	9869.958008		
2198.669922	9918.577148		
2199.988525	9909.878906		
2201.307129	9892.15918		
2202.625732	9932.990234		
2203.944336	9935.737305		
2205.262939	9951.197266		
2206.581543	10100.530273		
2207.900146	9981.603516		
2209.21875	9996.724609		
2210.537354	9933.124023		
2211.855957	10091.730469		
2213.174561	9975.943359		
2214.493164	9971.399414		
2215.811768	10031.958984		
2217.130371	9990.595703		
2218.448975	9925.137695		
2219.767578	10020.224609		
2221.086182	9966.725586		
2222.404785	9942.400391		
2223.723389	9961.392578		
2225.041992	9989.129883		
2226.360596	9849.664063		
2227.679199	9854.272461		
2228.997803	9940.44043		
2230.316406	10017.325195		
2231.63501	10007.02832		
2232.953613	10010.948242		
2234.272217	9970.835938		
2235.59082	10046.06543		
2236.909424	10113.654297		
2238.228027	10107.493164		
2239.546631	9847.634766		
2240.865234	9963.675781		
2242.183838	9993.050781		
2243.502441	10109.891602		
2244.821045	10131.183594		
2246.139648	9998.511719		
2247.458252	10002.549805		
2248.776855	9953.78418		
2250.095459	9913.365234		
2251.414063	10002.486328		
2252.732666	10025.390625		
2254.05127	10087.140625		
2255.369873	10112.698242		
2256.688477	10131.952148		
2258.00708	10135.704102		
2259.325684	10075.891602		
2260.644287	10071.69043		
2261.962891	10038.983398		
2263.281494	10072.732422		
2264.600098	10027.84082		
2265.918701	9994.688477		
2267.237305	10238.804688		
2268.555908	10078.949219		
2269.874512	10041.251953		
2271.193115	10056.833008		
2272.511719	9944.351563		
2273.830322	9949.325195		
2275.148926	10075.620117		
2276.467529	10148.305664		
2277.786133	9966.402344		
2279.104736	9984.137695		
2280.42334	9972.944336		
2281.741943	9966.666992		
2283.060547	10053.878906		
2284.37915	9995.128906		
2285.697754	9959.44043		
2287.016357	9968.500977		
2288.334961	10018.144531		
2289.653564	9991.626953		
2290.972168	9998.996094		
2292.290771	10192.168945		
2293.609375	10065.761719		
2294.927979	10052.677734		
2296.246582	9962.475586		
2297.565186	9978.853516		
2298.883789	9956.260742		
2300.202393	9952.81543		
2301.520996	9933.142578		
2302.8396	9990.855469		
2304.158203	9953.133789		
2305.476807	9949.884766		
2306.79541	9949.853516		
2308.114014	9986.604492		
2309.432617	9983.77832		
2310.751221	9898.950195		
2312.069824	9942.390625		
2313.388428	9947.048828		
2314.707031	10027.075195		
2316.025635	9999.583008		
2317.344238	9962.129883		
2318.662842	9965.135742		
2319.981445	10008.498047		
2321.300049	10145.146484		
2322.618652	9974.111328		
2323.937256	9905.751953		
2325.255859	10019.225586		
2326.574463	10047.573242		
2327.893066	10008.566406		
2329.21167	10123.533203		
2330.530273	10131.453125		
2331.848877	10032.398438		
2333.16748	10121.137695		
2334.486084	10104.947266		
2335.804688	9908.695313		
2337.123291	9960.101563		
2338.441895	10109.036133		
2339.760498	10112.489258		
2341.079102	10258.640625		
2342.397705	10083.688477		
2343.716309	9959.665039		
2345.034912	9999.698242		
2346.353516	10106.447266		
2347.672119	10109.040039		
2348.990723	10091.585938		
2350.309326	10094.009766		
2351.62793	10065.807617		
2352.946533	10057.124023		
2354.265137	10019.444336		
2355.58374	10013.510742		
2356.902344	9938.543945		
2358.220947	9880.818359		
2359.539551	10118.601563		
2360.858154	10104.874023		
2362.176758	10214.542969		
2363.495361	10029.59668		
2364.813965	10006.277344		
2366.132568	10030.626953		
2367.451172	10045.298828		
2368.769775	10046.932617		
2370.088379	10106.988281		
2371.406982	10024.064453		
2372.725586	10037.484375		
2374.044189	9963.243164		
2375.362793	9977.74707		
2376.681396	9901.098633		
2378.0	10129.166992		
2379.318604	10113.25293		
2380.637207	10010.826172		
2381.955811	9979.577148		
2383.274414	10058.316406		
2384.593018	9976.158203		
2385.911621	9930.381836		
2387.230225	10042.821289		
2388.548828	10028.496094		
2389.867432	10024.217773		
2391.186035	10012.480469		
2392.504639	10104.369141		
2393.823242	10039.449219		
2395.141846	10079.605469		
2396.460449	10090.969727		
2397.779053	10055.112305		
2399.097656	9961.233398		
2400.41626	9931.452148		
2401.734863	9945.473633		
2403.053467	10054.587891		
2404.37207	9959.612305		
2405.690674	10012.59082		
2407.009277	9975.745117		
2408.327881	9975.977539		
2409.646484	10081.5625		
2410.965088	9970.459961		
2412.283691	10010.761719		
2413.602295	10072.076172		
2414.920898	9970.412109		
2416.239502	10064.150391		
2417.558105	10089.661133		
2418.876709	9962.080078		
2420.195313	10045.625977		
2421.513916	10080.28418		
2422.83252	9894.769531		
2424.151123	9974.191406		
2425.469727	9888.960938		
2426.78833	9921.459961		
2428.106934	9892.657227		
2429.425537	10003.080078		
2430.744141	10023.762695		
2432.062744	9886.066406		
2433.381348	9957.867188		
2434.699951	10013.825195		
2436.018555	9881.5625		
2437.337158	9835.170898		
2438.655762	9849.748047		
2439.974365	9891.810547		
2441.292969	9994.959961		
2442.611572	10031.178711		
2443.930176	9991.707031		
2445.248779	9890.935547		
2446.567383	9932.083984		
2447.885986	9960.485352		
2449.20459	9911.241211		
2450.523193	9836.75		
2451.841797	10001.608398		
2453.1604	9866.249023		
2454.479004	9893.625		
2455.797607	9920.543945		
2457.116211	9952.018555		
2458.434814	9826.930664		
2459.753418	9768.65625		
2461.072021	9898.886719		
2462.390625	9936.104492		
2463.709229	9937.023438		
2465.027832	10019.642578		
2466.346436	10032.166016		
2467.665039	9968.216797		
2468.983643	9847.089844		
2470.302246	10089.374023		
2471.62085	9980.462891		
2472.939453	9939.642578		
2474.258057	9874.587891		
2475.57666	9960.970703		
2476.895264	9919.205078		
2478.213867	9962.780273		
2479.532471	9975.553711		
2480.851074	10036.369141		
2482.169678	10089.02832		
2483.488281	10197.208008		
2484.806885	10075.661133		
2486.125488	9881.584961		
2487.444092	10073.079102		
2488.762695	9911.204102		
2490.081299	9754.776367		
2491.399902	9941.946289		
2492.718506	10107.977539		
2494.037109	10030.333008		
2495.355713	9954.03418		
2496.674316	9871.96875		
2497.99292	10017.533203		
2499.311523	10102.058594		
2500.630127	9923.880859		
2501.94873	9925.145508		
2503.267334	9932.391602		
2504.585938	10071.881836		
2505.904541	9913.630859		
2507.223145	9979.818359		
2508.541748	9969.262695		
2509.860352	9968.376953		
2511.178955	9905.540039		
2512.497559	9859.612305		
2513.816162	9961.487305		
2515.134766	9963.395508		
2516.453369	9710.459961		
2517.771973	9887.044922		
2519.090576	10057.625977		
2520.40918	9944.611328		
2521.727783	9919.850586		
2523.046387	9876.696289		
2524.36499	9807.228516		
2525.683594	9886.743164		
2527.002197	9956.862305		
2528.320801	9891.436523		
2529.639404	9883.455078		
2530.958008	9879.760742		
2532.276611	9843.712891		
2533.595215	9924.928711		
2534.913818	9869.480469		
2536.232422	9961.855469		
2537.551025	9968.887695		
2538.869629	9774.682617		
2540.188232	9844.47168		
2541.506836	9841.405273		
2542.825439	9939.924805		
2544.144043	9799.185547		
2545.462646	9903.450195		
2546.78125	9896.714844		
2548.099854	9877.642578		
2549.418457	9785.44043		
2550.737061	9767.62207		
2552.055664	9842.327148		
2553.374268	9796.223633		
2554.692871	9780.72168		
2556.011475	9773.573242		
2557.330078	9879.995117		
2558.648682	9833.311523		
2559.967285	9936.955078		
2561.285889	9711.851563		
2562.604492	9748.612305		
2563.923096	9700.344727		
2565.241699	9754.707031		
2566.560303	9862.25		
2567.878906	9860.083984		
2569.19751	9794.331055		
2570.516113	9747.800781		
2571.834717	9698.970703		
2573.15332	9897.620117		
2574.471924	9829.05957		
2575.790527	9555.223633		
2577.109131	9680.294922		
2578.427734	9762.557617		
2579.746338	9801.180664		
2581.064941	9725.893555		
2582.383545	9791.586914		
2583.702148	9870.708008		
2585.020752	9799.420898		
2586.339355	9705.511719		
2587.657959	9709.03125		
2588.976563	9813.53418		
2590.295166	9760.025391		
2591.61377	9729.919922		
2592.932373	9797.744141		
2594.250977	9696.861328		
2595.56958	9705.750977		
2596.888184	9815.767578		
2598.206787	9923.579102		
2599.525391	9753.831055		
2600.843994	9740.472656		
2602.162598	9652.936523		
2603.481201	9797.12793		
2604.799805	9743.044922		
2606.118408	9718.083984		
2607.437012	9754.693359		
2608.755615	9694.919922		
2610.074219	9724.666992		
2611.392822	9720.375977		
2612.711426	9854.107422		
2614.030029	9826.138672		
2615.348633	9860.623047		
2616.667236	9748.967773		
2617.98584	9696.845703		
2619.304443	9796.598633		
2620.623047	9898.930664		
2621.94165	9822.816406		
2623.260254	9685.293945		
2624.578857	9811.602539		
2625.897461	9812.326172		
2627.216064	9764.730469		
2628.534668	9823.544922		
2629.853271	9835.571289		
2631.171875	9788.30957		
2632.490479	9706.787109		
2633.809082	9763.124023		
2635.127686	9788.839844		
2636.446289	9770.015625		
2637.764893	9809.555664		
2639.083496	9941.30957		
2640.4021	9627.601563		
2641.720703	9835.040039		
2643.039307	9829.535156		
2644.35791	9794.655273		
2645.676514	9781.876953		
2646.995117	9737.599609		
2648.313721	9767.237305		
2649.632324	9877.492188		
2650.950928	9772.361328		
2652.269531	9800.863281		
2653.588135	9766.101563		
2654.906738	9699.805664		
2656.225342	9704.029297		
2657.543945	9737.263672		
2658.862549	9795.87207		
2660.181152	9720.737305		
2661.499756	9783.837891		
2662.818359	9870.202148		
2664.136963	9616.209961		
2665.455566	9810.373047		
2666.77417	9645.947266		
2668.092773	9656.606445		
2669.411377	9679.647461		
2670.72998	9656.459961		
2672.048584	9633.458984		
2673.367188	9704.317383		
2674.685791	9658.818359		
2676.004395	9819.399414		
2677.322998	9653.447266		
2678.641602	9644.036133		
2679.960205	9822.480469		
2681.278809	9725.679688		
2682.597412	9643.386719		
2683.916016	9666.779297		
2685.234619	9736.978516		
2686.553223	9776.732422		
2687.871826	9759.666016		
2689.19043	9711.314453		
2690.509033	9729.492188		
2691.827637	9776.271484		
2693.14624	9687.188477		
2694.464844	9594.273438		
2695.783447	9614.087891		
2697.102051	9621.370117		
2698.420654	9581.87207		
2699.739258	9691.59082		
2701.057861	9553.405273		
2702.376465	9560.032227		
2703.695068	9637.761719		
2705.013672	9619.84668		
2706.332275	9534.920898		
2707.650879	9680.876953		
2708.969482	9661.28418		
2710.288086	9457.657227		
2711.606689	9686.802734		
2712.925293	9471.530273		
2714.243896	9587.268555		
2715.5625	9668.386719		
2716.881104	9526.193359		
2718.199707	9495.969727		
2719.518311	9535.80957		
2720.836914	9642.879883		
2722.155518	9620.294922		
2723.474121	9600.064453		
2724.792725	9500.171875		
2726.111328	9528.929688		
2727.429932	9618.027344		
2728.748535	9549.946289		
2730.067139	9560.109375		
2731.385742	9584.827148		
2732.704346	9688.476563		
2734.022949	9679.964844		
2735.341553	9519.959961		
2736.660156	9511.830078		
2737.97876	9519.789063		
2739.297363	9554.896484		
2740.615967	9619.445313		
2741.93457	9550.669922		
2743.253174	9562.567383		
2744.571777	9547.692383		
2745.890381	9588.709961		
2747.208984	9564.048828		
2748.527588	9472.488281		
2749.846191	9629.43457		
2751.164795	9656.795898		
2752.483398	9457.868164		
2753.802002	9618.610352		
2755.120605	9532.177734		
2756.439209	9541.051758		
2757.757813	9458.964844		
2759.076416	9565.777344		
2760.39502	9594.5625		
2761.713623	9449.589844		
2763.032227	9444.228516		
2764.35083	9411.74707		
2765.669434	9581.757813		
2766.988037	9490.831055		
2768.306641	9488.732422		
2769.625244	9510.069336		
2770.943848	9480.458008		
2772.262451	9691.267578		
2773.581055	9582.27832		
2774.899658	9503.539063		
2776.218262	9618.079102		
2777.536865	9562.443359		
2778.855469	9478.12207		
2780.174072	9390.157227		
2781.492676	9454.394531		
2782.811279	9403.769531		
2784.129883	9371.421875		
2785.448486	9500.435547		
2786.76709	9382.438477		
2788.085693	9470.367188		
2789.404297	9479.760742		
2790.7229	9541.314453		
2792.041504	9353.053711		
2793.360107	9500.977539		
2794.678711	9485.227539		
2795.997314	9398.21582		
2797.315918	9297.924805		
2798.634521	9455.588867		
2799.953125	9506.490234		
2801.271729	9445.356445		
2802.590332	9487.054688		
2803.908936	9438.592773		
2805.227539	9572.21875		
2806.546143	9466.928711		
2807.864746	9508.46582		
2809.18335	9514.592773		
2810.501953	9416.410156		
2811.820557	9490.027344		
2813.13916	9466.277344		
2814.457764	9415.055664		
2815.776367	9447.580078		
2817.094971	9492.597656		
2818.413574	9436.805664		
2819.732178	9483.865234		
2821.050781	9469.425781		
2822.369385	9417.318359		
2823.687988	9541.999023		
2825.006592	9424.53418		
2826.325195	9564.633789		
2827.643799	9494.238281		
2828.962402	9495.31543		
2830.281006	9491.207031		
2831.599609	9528.640625		
2832.918213	9504.603516		
2834.236816	9489.65332		
2835.55542	9401.982422		
2836.874023	9638.436523		
2838.192627	9518.611328		
2839.51123	9436.49707		
2840.829834	9493.029297		
2842.148438	9484.433594		
2843.467041	9346.24707		
2844.785645	9511.339844		
2846.104248	9400.529297		
2847.422852	9430.748047		
2848.741455	9427.818359		
2850.060059	9466.339844		
2851.378662	9459.191406		
2852.697266	9507.129883		
2854.015869	9381.282227		
2855.334473	9492.68457		
2856.653076	9594.402344		
2857.97168	9598.394531		
2859.290283	9443.791992		
2860.608887	9490.995117		
2861.92749	9347.378906		
2863.246094	9369.512695		
2864.564697	9539.802734		
2865.883301	9488.620117		
2867.201904	9475.350586		
2868.520508	9451.022461		
2869.839111	9480.15332		
2871.157715	9526.457031		
2872.476318	9352.867188		
2873.794922	9420.299805		
2875.113525	9398.983398		
2876.432129	9382.789063		
2877.750732	9502.605469		
2879.069336	9524.532227		
2880.387939	9311.137695		
2881.706543	9457.262695		
2883.025146	9516.053711		
2884.34375	9558.792969		
2885.662354	9465.873047		
2886.980957	9353.236328		
2888.299561	9399.192383		
2889.618164	9530.241211		
2890.936768	9381.824219		
2892.255371	9308.961914		
2893.573975	9338.100586		
2894.892578	9325.517578		
2896.211182	9490.617188		
2897.529785	9358.783203		
2898.848389	9483.772461		
2900.166992	9500.869141		
2901.485596	9370.214844		
2902.804199	9393.976563		
2904.122803	9426.00293		
2905.441406	9489.058594		
2906.76001	9448.109375		
2908.078613	9208.832031		
2909.397217	9386.839844		
2910.71582	9510.858398		
2912.034424	9468.132813		
2913.353027	9418.900391		
2914.671631	9250.109375		
2915.990234	9296.883789		
2917.308838	9370.892578		
2918.627441	9314.498047		
2919.946045	9452.456055		
2921.264648	9208.327148		
2922.583252	9189.238281		
2923.901855	9321.474609		
2925.220459	9341.264648		
2926.539063	9206.973633		
2927.857666	9222.019531		
2929.17627	9253.787109		
2930.494873	9327.411133		
2931.813477	9369.482422		
2933.13208	9406.961914		
2934.450684	9364.697266		
2935.769287	9338.274414		
2937.087891	9354.068359		
2938.406494	9300.365234		
2939.725098	9260.203125		
2941.043701	9279.186523		
2942.362305	9449.006836		
2943.680908	9277.15332		
2944.999512	9309.448242		
2946.318115	9416.607422		
2947.636719	9433.832031		
2948.955322	9284.001953		
2950.273926	9380.37207		
2951.592529	9303.818359		
2952.911133	9223.921875		
2954.229736	9316.111328		
2955.54834	9348.09668		
2956.866943	9362.796875		
2958.185547	9350.866211		
2959.50415	9319.467773		
2960.822754	9338.043945		
2962.141357	9426.469727		
2963.459961	9365.362305		
2964.778564	9340.070313		
2966.097168	9445.03125		
2967.415771	9313.642578		
2968.734375	9341.457031		
2970.052979	9275.505859		
2971.371582	9312.835938		
2972.690186	9315.532227		
2974.008789	9426.494141		
2975.327393	9386.388672		
2976.645996	9361.769531		
2977.9646	9352.824219		
2979.283203	9372.139648		
2980.601807	9379.808594		
2981.92041	9410.907227		
2983.239014	9466.12793		
2984.557617	9282.750977		
2985.876221	9379.677734		
2987.194824	9344.857422		
2988.513428	9405.207031		
2989.832031	9432.59668		
2991.150635	9225.075195		
2992.469238	9300.71582		
2993.787842	9348.109375		
2995.106445	9344.850586		
2996.425049	9279.765625		
2997.743652	9307.466797		
2999.062256	9399.299805		
3000.380859	9412.96582		
