Unnamed: 1	#Wave	Unnamed: 3	#Intensity
699.292969	3360.842285		
700.611694	3358.037109		
701.93042	3362.725586		
703.249146	3366.978027		
704.567871	3404.133545		
705.886597	3440.988281		
707.205322	3418.714111		
708.524048	3403.584229		
709.842773	3481.448242		
711.161499	3534.98877		
712.480225	3460.791016		
713.79895	3438.919922		
715.117676	3477.724121		
716.436401	3496.000732		
717.755127	3579.538818		
719.073853	3492.736328		
720.392578	3515.375732		
721.711304	3469.070068		
723.030029	3453.331787		
724.348755	3508.562012		
725.66748	3560.718018		
726.986206	3505.178711		
728.304932	3548.114014		
729.623657	3500.064941		
730.942383	3518.21875		
732.261108	3522.582275		
733.579834	3505.58252		
734.89856	3480.988037		
736.217285	3468.961182		
737.536011	3587.036621		
738.854736	3573.46582		
740.173462	3555.10376		
741.492188	3560.099121		
742.810913	3557.537354		
744.129639	3532.472412		
745.448364	3524.724854		
746.76709	3613.416992		
748.085815	3659.361328		
749.404541	3566.935059		
750.723267	3533.889404		
752.041992	3583.977051		
753.360718	3617.544189		
754.679443	3592.752441		
755.998169	3599.659424		
757.316895	3571.809814		
758.63562	3586.766602		
759.954346	3561.105957		
761.273071	3608.212891		
762.591797	3623.892822		
763.910522	3601.271484		
765.229248	3632.015625		
766.547974	3641.211182		
767.866699	3651.765625		
769.185425	3707.021973		
770.50415	3672.250977		
771.822876	3649.737305		
773.141602	3638.325439		
774.460327	3608.469238		
775.779053	3596.032471		
777.097778	3563.715576		
778.416504	3615.506348		
779.735229	3628.691162		
781.053955	3614.205566		
782.372681	3681.462891		
783.691406	3746.149658		
785.010132	3669.129639		
786.328857	3607.61499		
787.647583	3757.110352		
788.966309	3683.319336		
790.285034	3771.247559		
791.60376	3751.7146		
792.922485	3690.974609		
794.241211	3722.706299		
795.559937	3788.094971		
796.878662	3721.142578		
798.197388	3763.370117		
799.516113	3735.218262		
800.834839	3741.902832		
802.153564	3738.898682		
803.47229	3724.533691		
804.791016	3745.483643		
806.109741	3813.042725		
807.428467	3773.308838		
808.747192	3815.990723		
810.065918	3811.477051		
811.384644	3845.502441		
812.703369	3854.585449		
814.022095	3808.915527		
815.34082	3756.197998		
816.659546	3758.511719		
817.978271	3787.968262		
819.296997	3875.481689		
820.615723	3806.208252		
821.934448	3803.862549		
823.253174	3889.682129		
824.571899	3936.158447		
825.890625	3869.258301		
827.209351	3829.79126		
828.528076	3810.154297		
829.846802	3911.614502		
831.165527	3837.705566		
832.484253	3857.166992		
833.802979	3910.074219		
835.121704	3856.43042		
836.44043	3754.928223		
837.759155	3882.309814		
839.077881	3875.681396		
840.396606	3936.737549		
841.715332	3897.190918		
843.034058	3893.473633		
844.352783	3957.567139		
845.671509	3991.51001		
846.990234	3933.630371		
848.30896	3941.191406		
849.627686	3944.731689		
850.946411	3892.481934		
852.265137	3908.001465		
853.583862	3883.172852		
854.902588	3919.407715		
856.221313	3983.359375		
857.540039	3925.66626		
858.858765	3826.078613		
860.17749	3954.971191		
861.496216	3958.109131		
862.814941	3970.888428		
864.133667	3979.770508		
865.452393	3986.333984		
866.771118	3993.134766		
868.089844	4001.45166		
869.408569	4010.35376		
870.727295	3945.231934		
872.046021	3944.049316		
873.364746	3951.993896		
874.683472	3952.259521		
876.002197	4041.366699		
877.320923	4091.808838		
878.639648	4022.931641		
879.958374	4039.47168		
881.2771	3994.106689		
882.595825	4106.130371		
883.914551	4073.077148		
885.233276	4053.42041		
886.552002	4046.736084		
887.870728	4067.621338		
889.189453	4101.765137		
890.508179	4086.926514		
891.826904	4043.299072		
893.14563	4137.986328		
894.464355	4150.862793		
895.783081	4103.304688		
897.101807	4110.688477		
898.420532	4115.87793		
899.739258	4134.909668		
901.057983	4215.525879		
902.376709	4201.888184		
903.695435	4178.995117		
905.01416	4081.77417		
906.332886	4181.625977		
907.651611	4213.402344		
908.970337	4197.658203		
910.289063	4200.461426		
911.607788	4222.54248		
912.926514	4215.552246		
914.245239	4143.527832		
915.563965	4145.672852		
916.88269	4179.813965		
918.201416	4207.207031		
919.520142	4189.166016		
920.838867	4147.666992		
922.157593	4140.049316		
923.476318	4168.763184		
924.795044	4147.956055		
926.11377	4216.752441		
927.432495	4201.470703		
928.751221	4198.195313		
930.069946	4180.368164		
931.388672	4168.882813		
932.707397	4192.272461		
934.026123	4218.381348		
935.344849	4205.544434		
936.663574	4271.638672		
937.9823	4337.673828		
939.301025	4242.366699		
940.619751	4254.737793		
941.938477	4336.945801		
943.257202	4341.57373		
944.575928	4303.935547		
945.894653	4265.862793		
947.213379	4146.311035		
948.532104	4252.189453		
949.85083	4220.070313		
951.169556	4346.165039		
952.488281	4338.615234		
953.807007	4288.59082		
955.125732	4283.977051		
956.444458	4293.181152		
957.763184	4255.381836		
959.081909	4219.905762		
960.400635	4290.505371		
961.71936	4424.111816		
963.038086	4328.781738		
964.356812	4273.996582		
965.675537	4302.464844		
966.994263	4333.713379		
968.312988	4333.25293		
969.631714	4334.894531		
970.950439	4343.85791		
972.269165	4330.369629		
973.587891	4377.556641		
974.906616	4358.125		
976.225342	4345.237793		
977.544067	4380.166504		
978.862793	4392.152832		
980.181519	4382.790039		
981.500244	4381.655273		
982.81897	4336.871582		
984.137695	4470.072266		
985.456421	4339.976563		
986.775146	4432.743652		
988.093872	4448.121582		
989.412598	4441.657227		
990.731323	4476.116699		
992.050049	4509.865723		
993.368774	4485.612793		
994.6875	4441.084961		
996.006226	4422.358398		
997.324951	4474.343262		
998.643677	4515.229492		
999.962402	4539.51123		
1001.281128	4520.861816		
1002.599854	4456.873047		
1003.918579	4441.028809		
1005.237305	4528.724121		
1006.55603	4591.570801		
1007.874756	4442.927734		
1009.193481	4457.257813		
1010.512207	4488.971191		
1011.830933	4529.114258		
1013.149658	4485.783203		
1014.468384	4562.008789		
1015.787109	4581.712402		
1017.105835	4485.356934		
1018.424561	4490.483398		
1019.743286	4516.999023		
1021.062012	4564.880859		
1022.380737	4632.350098		
1023.699463	4636.452637		
1025.018188	4679.521973		
1026.336914	4559.566895		
1027.65564	4573.070801		
1028.974365	4649.746582		
1030.293091	4591.086426		
1031.611816	4634.84082		
1032.930542	4651.296387		
1034.249268	4633.803711		
1035.567993	4665.620117		
1036.886719	4655.266602		
1038.205444	4635.119141		
1039.52417	4643.182617		
1040.842896	4669.097656		
1042.161621	4679.925293		
1043.480347	4653.06543		
1044.799072	4594.485352		
1046.117798	4581.736328		
1047.436523	4576.373535		
1048.755249	4607.39502		
1050.073975	4597.646973		
1051.3927	4658.908691		
1052.711426	4678.616211		
1054.030151	4644.536621		
1055.348877	4654.974609		
1056.667603	4700.438965		
1057.986328	4633.260254		
1059.305054	4650.973633		
1060.623779	4686.963867		
1061.942505	4620.123047		
1063.26123	4719.90332		
1064.579956	4715.210938		
1065.898682	4676.65918		
1067.217407	4668.548828		
1068.536133	4654.978516		
1069.854858	4656.476563		
1071.173584	4712.619629		
1072.49231	4672.008301		
1073.811035	4728.07959		
1075.129761	4740.398438		
1076.448486	4730.550781		
1077.767212	4652.14209		
1079.085938	4653.902832		
1080.404663	4739.064453		
1081.723389	4807.932129		
1083.042114	4849.387695		
1084.36084	4851.559082		
1085.679565	4741.53418		
1086.998291	4780.831055		
1088.317017	4813.193359		
1089.635742	4844.841309		
1090.954468	4826.887695		
1092.273193	4828.630859		
1093.591919	4803.410645		
1094.910645	4757.589844		
1096.22937	4797.391113		
1097.548096	4832.075684		
1098.866821	4778.437012		
1100.185547	4837.946777		
1101.504272	4911.93457		
1102.822998	4915.71582		
1104.141724	4898.601563		
1105.460449	4898.123535		
1106.779175	4891.09375		
1108.0979	4912.172852		
1109.416626	4947.373047		
1110.735352	4859.004395		
1112.054077	4854.769043		
1113.372803	4992.153809		
1114.691528	4978.48291		
1116.010254	4910.773926		
1117.328979	4856.826172		
1118.647705	4870.852539		
1119.966431	4886.591797		
1121.285156	4897.616699		
1122.603882	4924.583984		
1123.922607	4945.255859		
1125.241333	4991.331055		
1126.560059	5017.25293		
1127.878784	5004.061035		
1129.19751	4944.507324		
1130.516235	5010.238281		
1131.834961	4949.592773		
1133.153687	4902.991699		
1134.472412	4904.717773		
1135.791138	4945.271484		
1137.109863	5009.06543		
1138.428589	5001.555176		
1139.747314	4956.959473		
1141.06604	5048.500488		
1142.384766	4971.229004		
1143.703491	4985.997559		
1145.022217	5008.999023		
1146.340942	5063.666992		
1147.659668	4999.555664		
1148.978394	4917.835449		
1150.297119	4946.152832		
1151.615845	5009.723633		
1152.93457	5019.38623		
1154.253296	5053.827637		
1155.572021	5053.075684		
1156.890747	5046.060547		
1158.209473	4982.345215		
1159.528198	4976.913086		
1160.846924	5018.149902		
1162.165649	5060.931152		
1163.484375	5007.07959		
1164.803101	4971.158203		
1166.121826	5054.526367		
1167.440552	5050.611328		
1168.759277	5010.352051		
1170.078003	5134.028809		
1171.396729	4988.492676		
1172.715454	5229.336914		
1174.03418	5083.330078		
1175.352905	5045.18457		
1176.671631	5076.323242		
1177.990356	5110.663086		
1179.309082	5113.866211		
1180.627808	5100.493652		
1181.946533	5152.508789		
1183.265259	5184.517578		
1184.583984	5044.934082		
1185.90271	5172.250977		
1187.221436	5130.316406		
1188.540161	5141.782715		
1189.858887	5244.346191		
1191.177612	5250.773438		
1192.496338	5234.271973		
1193.815063	5231.6875		
1195.133789	5207.76123		
1196.452515	5200.967285		
1197.77124	5241.878906		
1199.089966	5195.836914		
1200.408691	5156.530762		
1201.727417	5203.321289		
1203.046143	5306.978516		
1204.364868	5349.01123		
1205.683594	5271.07373		
1207.002319	5237.745117		
1208.321045	5286.922852		
1209.639771	5312.944824		
1210.958496	5246.253418		
1212.277222	5164.449707		
1213.595947	5208.594727		
1214.914673	5358.149902		
1216.233398	5300.152832		
1217.552124	5243.720215		
1218.87085	5298.238281		
1220.189575	5365.704102		
1221.508301	5330.938477		
1222.827026	5281.08252		
1224.145752	5313.595703		
1225.464478	5392.269043		
1226.783203	5360.425293		
1228.101929	5250.381348		
1229.420654	5370.201172		
1230.73938	5406.37207		
1232.058105	5289.649902		
1233.376831	5320.907227		
1234.695557	5286.315918		
1236.014282	5376.479492		
1237.333008	5339.51709		
1238.651733	5363.944824		
1239.970459	5414.484375		
1241.289185	5403.611328		
1242.60791	5368.789551		
1243.926636	5346.481445		
1245.245361	5317.06543		
1246.564087	5325.52832		
1247.882813	5341.831543		
1249.201538	5341.109863		
1250.520264	5407.410156		
1251.838989	5441.345215		
1253.157715	5415.99707		
1254.47644	5467.076172		
1255.795166	5454.800781		
1257.113892	5357.851074		
1258.432617	5349.76709		
1259.751343	5391.845215		
1261.070068	5327.086426		
1262.388794	5420.089844		
1263.70752	5504.603516		
1265.026245	5410.638672		
1266.344971	5335.753906		
1267.663696	5422.804688		
1268.982422	5466.985352		
1270.301147	5497.723145		
1271.619873	5458.535156		
1272.938599	5466.524414		
1274.257324	5443.585449		
1275.57605	5415.610352		
1276.894775	5484.770508		
1278.213501	5517.185059		
1279.532227	5540.708984		
1280.850952	5552.379395		
1282.169678	5524.043457		
1283.488403	5465.009766		
1284.807129	5524.062988		
1286.125854	5542.629883		
1287.44458	5517.225098		
1288.763306	5520.361816		
1290.082031	5494.076172		
1291.400757	5511.713867		
1292.719482	5504.821289		
1294.038208	5471.276855		
1295.356934	5572.884277		
1296.675659	5568.294922		
1297.994385	5646.208984		
1299.31311	5589.705078		
1300.631836	5616.647949		
1301.950562	5604.906738		
1303.269287	5586.942871		
1304.588013	5608.303711		
1305.906738	5603.027832		
1307.225464	5611.695313		
1308.544189	5619.884766		
1309.862915	5627.498535		
1311.181641	5638.593262		
1312.500366	5669.519043		
1313.819092	5721.354492		
1315.137817	5636.912109		
1316.456543	5749.085938		
1317.775269	5672.730469		
1319.093994	5729.238281		
1320.41272	5592.574219		
1321.731445	5611.695801		
1323.050171	5602.904785		
1324.368896	5677.240723		
1325.687622	5731.13916		
1327.006348	5757.577637		
1328.325073	5757.440918		
1329.643799	5758.815918		
1330.962524	5775.593262		
1332.28125	5720.4375		
1333.599976	5747.482422		
1334.918701	5718.552246		
1336.237427	5782.116211		
1337.556152	5861.812988		
1338.874878	5673.751953		
1340.193604	5687.657227		
1341.512329	5712.437012		
1342.831055	5703.078125		
1344.14978	5780.344727		
1345.468506	5798.319336		
1346.787231	5777.750488		
1348.105957	5786.626465		
1349.424683	5729.449219		
1350.743408	5685.955078		
1352.062134	5827.077637		
1353.380859	5758.44873		
1354.699585	5808.509277		
1356.018311	5723.747559		
1357.337036	5731.778809		
1358.655762	5780.227051		
1359.974487	5741.879395		
1361.293213	5772.074219		
1362.611938	5783.600098		
1363.930664	5809.524902		
1365.24939	5810.008301		
1366.568115	5816.37207		
1367.886841	5842.928711		
1369.205566	5823.092773		
1370.524292	5776.181152		
1371.843018	5748.249512		
1373.161743	5819.939453		
1374.480469	5841.720703		
1375.799194	5804.57666		
1377.11792	5988.294434		
1378.436646	5926.411133		
1379.755371	5833.138184		
1381.074097	5872.325195		
1382.392822	5886.008301		
1383.711548	5840.916504		
1385.030273	5869.60498		
1386.348999	5932.987793		
1387.667725	5916.114258		
1388.98645	5885.45166		
1390.305176	5934.140625		
1391.623901	5956.89502		
1392.942627	5923.553223		
1394.261353	5986.01416		
1395.580078	5965.208008		
1396.898804	5981.181152		
1398.217529	5916.196777		
1399.536255	5829.217773		
1400.85498	6010.140625		
1402.173706	5861.570801		
1403.492432	5896.504395		
1404.811157	6026.555664		
1406.129883	6017.193848		
1407.448608	5952.064941		
1408.767334	5976.35498		
1410.08606	6036.878418		
1411.404785	6043.521973		
1412.723511	6059.179688		
1414.042236	6080.47168		
1415.360962	5998.154785		
1416.679688	6061.433594		
1417.998413	6074.160156		
1419.317139	6170.041992		
1420.635864	6131.185059		
1421.95459	6050.007324		
1423.273315	6106.348633		
1424.592041	6021.930176		
1425.910767	6135.111328		
1427.229492	6078.534668		
1428.548218	6056.796387		
1429.866943	6094.480957		
1431.185669	6066.28125		
1432.504395	6091.736816		
1433.82312	6089.200195		
1435.141846	6135.82666		
1436.460571	6140.76709		
1437.779297	6042.474121		
1439.098022	6087.417969		
1440.416748	6192.90918		
1441.735474	6298.437988		
1443.054199	6133.059082		
1444.372925	6168.20459		
1445.69165	6191.099121		
1447.010376	6050.256836		
1448.329102	6140.767578		
1449.647827	6217.181152		
1450.966553	6190.881836		
1452.285278	6128.865234		
1453.604004	6124.171387		
1454.922729	6154.125		
1456.241455	6144.411133		
1457.560181	6200.17334		
1458.878906	6190.939453		
1460.197632	6174.133789		
1461.516357	6209.736328		
1462.835083	6213.447754		
1464.153809	6344.994141		
1465.472534	6161.80957		
1466.79126	6200.183105		
1468.109985	6188.89209		
1469.428711	6274.47168		
1470.747437	6230.872559		
1472.066162	6260.117676		
1473.384888	6228.111816		
1474.703613	6136.040039		
1476.022339	6196.341797		
1477.341064	6320.689941		
1478.65979	6321.46582		
1479.978516	6267.957031		
1481.297241	6212.834961		
1482.615967	6177.260742		
1483.934692	6316.953125		
1485.253418	6341.046387		
1486.572144	6308.656738		
1487.890869	6266.297363		
1489.209595	6248.596191		
1490.52832	6281.062988		
1491.847046	6137.597168		
1493.165771	6292.486328		
1494.484497	6343.798828		
1495.803223	6331.890625		
1497.121948	6292.518555		
1498.440674	6298.574219		
1499.759399	6261.797363		
1501.078125	6231.911621		
1502.396851	6214.999512		
1503.715576	6250.844727		
1505.034302	6354.371094		
1506.353027	6352.269043		
1507.671753	6340.532715		
1508.990479	6495.012207		
1510.309204	6448.9375		
1511.62793	6357.763672		
1512.946655	6460.805664		
1514.265381	6408.10791		
1515.584106	6436.638184		
1516.902832	6417.928711		
1518.221558	6438.464844		
1519.540283	6489.139648		
1520.859009	6379.20459		
1522.177734	6418.577637		
1523.49646	6478.895508		
1524.815186	6502.33252		
1526.133911	6482.177734		
1527.452637	6395.477539		
1528.771362	6391.952148		
1530.090088	6479.581055		
1531.408813	6508.933594		
1532.727539	6468.304199		
1534.046265	6457.563965		
1535.36499	6518.447266		
1536.683716	6536.657715		
1538.002441	6553.745117		
1539.321167	6509.178223		
1540.639893	6508.199219		
1541.958618	6493.421387		
1543.277344	6564.913086		
1544.596069	6553.916992		
1545.914795	6425.169922		
1547.233521	6483.835938		
1548.552246	6474.165527		
1549.870972	6477.969238		
1551.189697	6582.888672		
1552.508423	6538.019043		
1553.827148	6522.041504		
1555.145874	6536.585938		
1556.4646	6554.166504		
1557.783325	6552.145508		
1559.102051	6547.164551		
1560.420776	6585.859375		
1561.739502	6610.262695		
1563.058228	6570.598633		
1564.376953	6551.071777		
1565.695679	6620.562012		
1567.014404	6716.427734		
1568.33313	6597.508301		
1569.651855	6565.071289		
1570.970581	6609.466797		
1572.289307	6709.111328		
1573.608032	6523.790039		
1574.926758	6552.791016		
1576.245483	6697.244141		
1577.564209	6723.116699		
1578.882935	6626.854492		
1580.20166	6714.131348		
1581.520386	6615.705566		
1582.839111	6540.281738		
1584.157837	6559.468262		
1585.476563	6605.992188		
1586.795288	6674.811035		
1588.114014	6645.953125		
1589.432739	6647.980957		
1590.751465	6670.048828		
1592.07019	6645.001465		
1593.388916	6673.541016		
1594.707642	6660.999512		
1596.026367	6617.206055		
1597.345093	6717.370117		
1598.663818	6672.579102		
1599.982544	6618.841309		
1601.30127	6693.772949		
1602.619995	6728.421387		
1603.938721	6826.175293		
1605.257446	6686.776855		
1606.576172	6751.458984		
1607.894897	6648.986328		
1609.213623	6729.256348		
1610.532349	6638.572754		
1611.851074	6637.108398		
1613.1698	6716.780273		
1614.488525	6844.864258		
1615.807251	6731.47998		
1617.125977	6683.867188		
1618.444702	6757.003418		
1619.763428	6758.10498		
1621.082153	6793.433594		
1622.400879	6759.424805		
1623.719604	6760.835938		
1625.03833	6799.409668		
1626.357056	6827.605957		
1627.675781	6903.465332		
1628.994507	6941.843262		
1630.313232	6867.526367		
1631.631958	6811.086914		
1632.950684	6794.979492		
1634.269409	6776.51416		
1635.588135	6888.854004		
1636.90686	6872.550293		
1638.225586	6921.134277		
1639.544312	6851.394043		
1640.863037	6868.407227		
1642.181763	6880.919434		
1643.500488	6961.169434		
1644.819214	6977.453613		
1646.137939	6966.219238		
1647.456665	6756.644531		
1648.775391	6894.109863		
1650.094116	6941.949219		
1651.412842	6875.11084		
1652.731567	7044.242676		
1654.050293	7018.983887		
1655.369019	6988.60498		
1656.687744	6930.075195		
1658.00647	7003.163574		
1659.325195	6970.148926		
1660.643921	7062.694824		
1661.962646	7013.61084		
1663.281372	7005.930664		
1664.600098	7090.463379		
1665.918823	7011.875488		
1667.237549	6976.587891		
1668.556274	7035.315918		
1669.875	7015.583496		
1671.193726	7015.011719		
1672.512451	7048.071777		
1673.831177	7054.451172		
1675.149902	7079.312988		
1676.468628	7115.091797		
1677.787354	7063.390137		
1679.106079	7023.97168		
1680.424805	7144.484375		
1681.74353	7189.200684		
1683.062256	7048.649902		
1684.380981	7110.98584		
1685.699707	7084.160645		
1687.018433	6975.347656		
1688.337158	7015.584961		
1689.655884	6989.352051		
1690.974609	7074.924316		
1692.293335	7038.50293		
1693.612061	7047.401367		
1694.930786	7132.367188		
1696.249512	7078.016602		
1697.568237	7049.365234		
1698.886963	7086.120605		
1700.205688	6963.178711		
1701.524414	7115.240234		
1702.84314	7065.668945		
1704.161865	7089.396973		
1705.480591	7043.682617		
1706.799316	7082.055176		
1708.118042	7081.444824		
1709.436768	7098.914063		
1710.755493	7147.062012		
1712.074219	7168.786133		
1713.392944	7170.44873		
1714.71167	7164.788086		
1716.030396	7125.016113		
1717.349121	7128.101563		
1718.667847	7127.09668		
1719.986572	7026.240234		
1721.305298	7009.833008		
1722.624023	7099.296387		
1723.942749	7153.970703		
1725.261475	7172.589844		
1726.5802	7136.336914		
1727.898926	7143.258789		
1729.217651	7068.715332		
1730.536377	7087.092773		
1731.855103	7061.745117		
1733.173828	7067.282715		
1734.492554	7072.847656		
1735.811279	7147.518066		
1737.130005	7195.922852		
1738.44873	7189.322754		
1739.767456	7091.220703		
1741.086182	7136.961426		
1742.404907	7253.190918		
1743.723633	7283.477051		
1745.042358	7102.136719		
1746.361084	7296.221191		
1747.67981	7161.626953		
1748.998535	7226.720215		
1750.317261	7268.197266		
1751.635986	7380.667969		
1752.954712	7155.375		
1754.273438	7181.901855		
1755.592163	7258.761719		
1756.910889	7233.598633		
1758.229614	7294.521973		
1759.54834	7454.016602		
1760.867065	7309.630371		
1762.185791	7317.182129		
1763.504517	7385.950195		
1764.823242	7293.866699		
1766.141968	7437.636719		
1767.460693	7385.124023		
1768.779419	7326.671387		
1770.098145	7438.589355		
1771.41687	7472.041504		
1772.735596	7271.604492		
1774.054321	7302.91748		
1775.373047	7385.6875		
1776.691772	7401.626953		
1778.010498	7390.818359		
1779.329224	7365.963379		
1780.647949	7344.012207		
1781.966675	7409.697754		
1783.2854	7435.868652		
1784.604126	7338.703125		
1785.922852	7318.960938		
1787.241577	7306.291504		
1788.560303	7288.487305		
1789.879028	7375.742676		
1791.197754	7445.737305		
1792.516479	7430.225586		
1793.835205	7380.251953		
1795.153931	7409.183105		
1796.472656	7448.949707		
1797.791382	7366.153809		
1799.110107	7342.997559		
1800.428833	7433.92041		
1801.747559	7458.51416		
1803.066284	7463.386719		
1804.38501	7503.055176		
1805.703735	7468.40625		
1807.022461	7403.192871		
1808.341187	7415.706055		
1809.659912	7405.353516		
1810.978638	7441.500488		
1812.297363	7406.69043		
1813.616089	7359.333496		
1814.934814	7406.681152		
1816.25354	7328.825684		
1817.572266	7354.108887		
1818.890991	7474.223633		
1820.209717	7347.926758		
1821.528442	7433.037598		
1822.847168	7368.894043		
1824.165894	7451.314941		
1825.484619	7435.850586		
1826.803345	7426.59375		
1828.12207	7452.174805		
1829.440796	7475.014648		
1830.759521	7441.29541		
1832.078247	7552.938477		
1833.396973	7384.172852		
1834.715698	7399.389648		
1836.034424	7408.821777		
1837.353149	7441.809082		
1838.671875	7473.468262		
1839.990601	7481.006348		
1841.309326	7408.071289		
1842.628052	7673.842773		
1843.946777	7525.710938		
1845.265503	7449.103516		
1846.584229	7470.001953		
1847.902954	7685.647461		
1849.22168	7600.131348		
1850.540405	7556.796387		
1851.859131	7443.100098		
1853.177856	7536.420898		
1854.496582	7653.514648		
1855.815308	7589.221191		
1857.134033	7436.838867		
1858.452759	7567.275879		
1859.771484	7516.553223		
1861.09021	7599.87207		
1862.408936	7481.95752		
1863.727661	7611.528809		
1865.046387	7597.067383		
1866.365112	7610.342285		
1867.683838	7689.83252		
1869.002563	7683.931152		
1870.321289	7532.292969		
1871.640015	7612.961914		
1872.95874	7736.897461		
1874.277466	7718.782227		
1875.596191	7633.512695		
1876.914917	7634.287598		
1878.233643	7570.818848		
1879.552368	7625.317871		
1880.871094	7667.873047		
1882.189819	7593.391602		
1883.508545	7755.861328		
1884.827271	7682.431152		
1886.145996	7728.366211		
1887.464722	7682.097168		
1888.783447	7699.645996		
1890.102173	7734.09375		
1891.420898	7712.304688		
1892.739624	7634.949707		
1894.05835	7764.26123		
1895.377075	7755.826172		
1896.695801	7744.656738		
1898.014526	7819.583496		
1899.333252	7846.996582		
1900.651978	7862.287109		
1901.970703	7772.763672		
1903.289429	7805.544434		
1904.608154	7874.983398		
1905.92688	7845.603516		
1907.245605	7508.688965		
1908.564331	7861.652832		
1909.883057	7848.47998		
1911.201782	7773.898926		
1912.520508	7700.750977		
1913.839233	7767.230469		
1915.157959	7814.65625		
1916.476685	7794.210938		
1917.79541	7886.291992		
1919.114136	7774.373535		
1920.432861	7857.570313		
1921.751587	7679.184082		
1923.070313	7640.980957		
1924.389038	7861.734375		
1925.707764	7761.537109		
1927.026489	7806.938965		
1928.345215	7714.875977		
1929.66394	7873.04248		
1930.982666	7764.904785		
1932.301392	7807.693359		
1933.620117	7830.669434		
1934.938843	7770.372559		
1936.257568	7846.464844		
1937.576294	7863.697754		
1938.89502	7640.514648		
1940.213745	7786.1875		
1941.532471	7764.299316		
1942.851196	7850.873535		
1944.169922	7708.869141		
1945.488647	7727.935547		
1946.807373	7810.082031		
1948.126099	7757.855469		
1949.444824	7759.728516		
1950.76355	7927.491211		
1952.082275	7874.118652		
1953.401001	7855.831055		
1954.719727	7782.384277		
1956.038452	7925.532227		
1957.357178	7855.120117		
1958.675903	7864.523926		
1959.994629	7966.035645		
1961.313354	7889.822754		
1962.63208	7937.693359		
1963.950806	7908.016113		
1965.269531	7869.859863		
1966.588257	7863.296387		
1967.906982	7893.619629		
1969.225708	7957.925781		
1970.544434	7832.638672		
1971.863159	7941.996094		
1973.181885	7945.439941		
1974.50061	7934.099609		
1975.819336	7962.599121		
1977.138062	7937.282715		
1978.456787	8106.708008		
1979.775513	8003.806641		
1981.094238	7903.873047		
1982.412964	7963.214844		
1983.731689	7942.073242		
1985.050415	7913.822754		
1986.369141	7923.334961		
1987.687866	7952.743164		
1989.006592	7937.056152		
1990.325317	7969.043945		
1991.644043	7939.115723		
1992.962769	7910.188965		
1994.281494	7962.77832		
1995.60022	8015.972656		
1996.918945	8080.767578		
1998.237671	8032.842773		
1999.556396	8039.501465		
2000.875122	8132.980957		
2002.193848	8146.091797		
2003.512573	8095.390137		
2004.831299	8108.086914		
2006.150024	8021.939453		
2007.46875	7993.557617		
2008.787476	8014.775879		
2010.106201	7989.343262		
2011.424927	8081.410645		
2012.743652	8028.596191		
2014.062378	8070.471191		
2015.381104	8163.152832		
2016.699829	8120.160156		
2018.018555	7984.652344		
2019.33728	8113.426758		
2020.656006	8089.815918		
2021.974731	8102.945313		
2023.293457	7983.450195		
2024.612183	8101.971191		
2025.930908	8132.687988		
2027.249634	8122.271484		
2028.568359	8164.450195		
2029.887085	8203.282227		
2031.205811	8179.144043		
2032.524536	8090.750488		
2033.843262	8106.830078		
2035.161987	8160.658691		
2036.480713	8081.675781		
2037.799438	8091.113281		
2039.118164	8200.984375		
2040.43689	8141.197266		
2041.755615	8128.171387		
2043.074341	8000.375		
2044.393066	8122.357422		
2045.711792	8200.353516		
2047.030518	8105.475586		
2048.349121	8028.547852		
2049.667725	8099.352051		
2050.986328	8105.178223		
2052.304932	8164.581055		
2053.623535	8155.548828		
2054.942139	8160.030762		
2056.260742	8139.007813		
2057.579346	8102.51709		
2058.897949	8098.667969		
2060.216553	8180.114746		
2061.535156	8069.502441		
2062.85376	8050.558594		
2064.172363	8132.402344		
2065.490967	8096.524902		
2066.80957	8146.254883		
2068.128174	8110.01709		
2069.446777	8113.853516		
2070.765381	8161.126953		
2072.083984	8155.383789		
2073.402588	8167.249023		
2074.721191	8163.23291		
2076.039795	8069.056152		
2077.358398	8093.219727		
2078.677002	8216.331055		
2079.995605	8241.287109		
2081.314209	8140.064941		
2082.632813	8140.472656		
2083.951416	8208.335938		
2085.27002	8310.241211		
2086.588623	8156.92041		
2087.907227	8213.274414		
2089.22583	8326.948242		
2090.544434	8168.836426		
2091.863037	8223.442383		
2093.181641	8235.558594		
2094.500244	8283.110352		
2095.818848	8334.907227		
2097.137451	8132.977539		
2098.456055	8332.972656		
2099.774658	8238.488281		
2101.093262	8378.379883		
2102.411865	8276.907227		
2103.730469	8206.969727		
2105.049072	8269.157227		
2106.367676	8281.106445		
2107.686279	8277.625977		
2109.004883	8360.717773		
2110.323486	8268.494141		
2111.64209	8424.769531		
2112.960693	8276.03418		
2114.279297	8274.823242		
2115.5979	8205.554688		
2116.916504	8318.865234		
2118.235107	8328.854492		
2119.553711	8318.688477		
2120.872314	8260.405273		
2122.190918	8352.59082		
2123.509521	8443.949219		
2124.828125	8433.298828		
2126.146729	8393.165039		
2127.465332	8386.612305		
2128.783936	8480.582031		
2130.102539	8442.458008		
2131.421143	8386.448242		
2132.739746	8436.917969		
2134.05835	8313.486328		
2135.376953	8284.564453		
2136.695557	8377.594727		
2138.01416	8325.678711		
2139.332764	8375.59668		
2140.651367	8454.935547		
2141.969971	8308.613281		
2143.288574	8360.605469		
2144.607178	8361.360352		
2145.925781	8482.167969		
2147.244385	8412.579102		
2148.562988	8527.630859		
2149.881592	8402.522461		
2151.200195	8388.0625		
2152.518799	8290.735352		
2153.837402	8356.982422		
2155.156006	8401.363281		
2156.474609	8384.967773		
2157.793213	8362.898438		
2159.111816	8421.015625		
2160.43042	8361.366211		
2161.749023	8323.15332		
2163.067627	8350.460938		
2164.38623	8398.526367		
2165.704834	8444.467773		
2167.023438	8482.285156		
2168.342041	8487.527344		
2169.660645	8456.756836		
2170.979248	8394.986328		
2172.297852	8420.866211		
2173.616455	8563.572266		
2174.935059	8594.780273		
2176.253662	8467.604492		
2177.572266	8426.803711		
2178.890869	8418.760742		
2180.209473	8526.140625		
2181.528076	8500.388672		
2182.84668	8322.764648		
2184.165283	8365.547852		
2185.483887	8493.259766		
2186.80249	8453.422852		
2188.121094	8420.9375		
2189.439697	8364.389648		
2190.758301	8376.12793		
2192.076904	8378.479492		
2193.395508	8422.881836		
2194.714111	8446.921875		
2196.032715	8382.775391		
2197.351318	8405.076172		
2198.669922	8497.580078		
2199.988525	8451.330078		
2201.307129	8428.047852		
2202.625732	8462.476563		
2203.944336	8500.80957		
2205.262939	8470.732422		
2206.581543	8544.249023		
2207.900146	8511.427734		
2209.21875	8542.084961		
2210.537354	8382.695313		
2211.855957	8498.510742		
2213.174561	8527.391602		
2214.493164	8489.110352		
2215.811768	8517.3125		
2217.130371	8530.125		
2218.448975	8608.25		
2219.767578	8569.999023		
2221.086182	8536.069336		
2222.404785	8509.517578		
2223.723389	8501.126953		
2225.041992	8545.145508		
2226.360596	8552.694336		
2227.679199	8505.713867		
2228.997803	8585.514648		
2230.316406	8491.12793		
2231.63501	8506.457031		
2232.953613	8660.436523		
2234.272217	8435.481445		
2235.59082	8517.048828		
2236.909424	8572.25293		
2238.228027	8522.830078		
2239.546631	8577.026367		
2240.865234	8574.923828		
2242.183838	8602.507813		
2243.502441	8618.59668		
2244.821045	8620.024414		
2246.139648	8519.118164		
2247.458252	8484.228516		
2248.776855	8518.520508		
2250.095459	8500.361328		
2251.414063	8574.615234		
2252.732666	8577.754883		
2254.05127	8615.197266		
2255.369873	8686.744141		
2256.688477	8603.871094		
2258.00708	8598.472656		
2259.325684	8640.302734		
2260.644287	8567.866211		
2261.962891	8456.188477		
2263.281494	8572.113281		
2264.600098	8556.847656		
2265.918701	8571.96582		
2267.237305	8573.739258		
2268.555908	8631.401367		
2269.874512	8513.845703		
2271.193115	8705.513672		
2272.511719	8667.901367		
2273.830322	8629.483398		
2275.148926	8607.619141		
2276.467529	8615.427734		
2277.786133	8578.019531		
2279.104736	8658.008789		
2280.42334	8597.883789		
2281.741943	8601.291016		
2283.060547	8695.354492		
2284.37915	8612.506836		
2285.697754	8528.734375		
2287.016357	8604.607422		
2288.334961	8465.387695		
2289.653564	8580.65332		
2290.972168	8511.650391		
2292.290771	8612.420898		
2293.609375	8828.239258		
2294.927979	8690.768555		
2296.246582	8669.381836		
2297.565186	8617.09668		
2298.883789	8570.774414		
2300.202393	8580.709961		
2301.520996	8594.933594		
2302.8396	8559.691406		
2304.158203	8655.969727		
2305.476807	8679.333008		
2306.79541	8661.93457		
2308.114014	8704.385742		
2309.432617	8666.845703		
2310.751221	8705.556641		
2312.069824	8718.375977		
2313.388428	8589.355469		
2314.707031	8633.202148		
2316.025635	8510.533203		
2317.344238	8715.765625		
2318.662842	8678.905273		
2319.981445	8595.507813		
2321.300049	8669.961914		
2322.618652	8682.633789		
2323.937256	8737.332031		
2325.255859	8686.869141		
2326.574463	8564.676758		
2327.893066	8631.806641		
2329.21167	8634.648438		
2330.530273	8738.405273		
2331.848877	8725.416992		
2333.16748	8625.456055		
2334.486084	8620.030273		
2335.804688	8613.925781		
2337.123291	8869.006836		
2338.441895	8789.896484		
2339.760498	8744.285156		
2341.079102	8752.432617		
2342.397705	8653.070313		
2343.716309	8742.083008		
2345.034912	8670.160156		
2346.353516	8783.12793		
2347.672119	8706.638672		
2348.990723	8668.992188		
2350.309326	8649.226563		
2351.62793	8746.544922		
2352.946533	8816.879883		
2354.265137	8861.580078		
2355.58374	8779.396484		
2356.902344	8648.884766		
2358.220947	8834.610352		
2359.539551	8718.900391		
2360.858154	8900.874023		
2362.176758	8803.399414		
2363.495361	8794.243164		
2364.813965	8810.441406		
2366.132568	8811.598633		
2367.451172	8714.598633		
2368.769775	8838.101563		
2370.088379	8811.811523		
2371.406982	8697.672852		
2372.725586	8698.594727		
2374.044189	8791.407227		
2375.362793	8714.541016		
2376.681396	8736.810547		
2378.0	8754.283203		
2379.318604	8844.479492		
2380.637207	8660.271484		
2381.955811	8816.825195		
2383.274414	8864.208008		
2384.593018	8813.954102		
2385.911621	8856.335938		
2387.230225	8853.446289		
2388.548828	8823.011719		
2389.867432	8837.665039		
2391.186035	8751.080078		
2392.504639	8780.179688		
2393.823242	8863.817383		
2395.141846	8796.459961		
2396.460449	8801.079102		
2397.779053	8878.34082		
2399.097656	8813.134766		
2400.41626	8834.583984		
2401.734863	8637.963867		
2403.053467	8866.791016		
2404.37207	8839.731445		
2405.690674	8850.675781		
2407.009277	8858.144531		
2408.327881	8860.355469		
2409.646484	8878.662109		
2410.965088	8835.519531		
2412.283691	8815.520508		
2413.602295	8866.624023		
2414.920898	8885.595703		
2416.239502	8882.825195		
2417.558105	8932.40625		
2418.876709	8764.456055		
2420.195313	8829.826172		
2421.513916	8814.461914		
2422.83252	8893.314453		
2424.151123	8865.822266		
2425.469727	8894.887695		
2426.78833	8866.710938		
2428.106934	8793.342773		
2429.425537	8787.3125		
2430.744141	8883.583008		
2432.062744	8723.84082		
2433.381348	8734.466797		
2434.699951	8765.333008		
2436.018555	8991.602539		
2437.337158	8905.084961		
2438.655762	8879.910156		
2439.974365	8799.724609		
2441.292969	8804.920898		
2442.611572	8815.345703		
2443.930176	8772.40332		
2445.248779	8892.137695		
2446.567383	8890.78125		
2447.885986	8897.731445		
2449.20459	8891.647461		
2450.523193	8853.313477		
2451.841797	8823.3125		
2453.1604	8902.171875		
2454.479004	8873.742188		
2455.797607	8925.912109		
2457.116211	8936.291992		
2458.434814	8949.186523		
2459.753418	8994.117188		
2461.072021	8909.507813		
2462.390625	8812.368164		
2463.709229	8832.485352		
2465.027832	8845.231445		
2466.346436	8858.887695		
2467.665039	8900.131836		
2468.983643	8982.171875		
2470.302246	9004.300781		
2471.62085	8949.208984		
2472.939453	9004.759766		
2474.258057	8953.342773		
2475.57666	8862.226563		
2476.895264	8980.270508		
2478.213867	8926.515625		
2479.532471	8821.548828		
2480.851074	8839.798828		
2482.169678	8929.053711		
2483.488281	8828.00293		
2484.806885	9035.99707		
2486.125488	8988.134766		
2487.444092	9049.742188		
2488.762695	8914.473633		
2490.081299	9088.073242		
2491.399902	9014.373047		
2492.718506	9001.15918		
2494.037109	9029.270508		
2495.355713	9041.368164		
2496.674316	8996.826172		
2497.99292	8936.326172		
2499.311523	8940.134766		
2500.630127	8998.62207		
2501.94873	8920.426758		
2503.267334	8964.919922		
2504.585938	8946.822266		
2505.904541	8936.007813		
2507.223145	8886.042969		
2508.541748	8957.899414		
2509.860352	8991.515625		
2511.178955	8932.558594		
2512.497559	8909.022461		
2513.816162	9052.427734		
2515.134766	8931.378906		
2516.453369	8897.107422		
2517.771973	9080.99707		
2519.090576	8895.130859		
2520.40918	9008.728516		
2521.727783	8896.401367		
2523.046387	8939.334961		
2524.36499	8920.194336		
2525.683594	8912.356445		
2527.002197	8968.112305		
2528.320801	8915.419922		
2529.639404	9025.96875		
2530.958008	8918.985352		
2532.276611	8951.101563		
2533.595215	8987.144531		
2534.913818	9065.93457		
2536.232422	9044.384766		
2537.551025	8895.647461		
2538.869629	8986.899414		
2540.188232	9002.364258		
2541.506836	9056.295898		
2542.825439	8943.798828		
2544.144043	9032.435547		
2545.462646	8794.783203		
2546.78125	8926.439453		
2548.099854	9002.517578		
2549.418457	9009.654297		
2550.737061	8897.261719		
2552.055664	8956.526367		
2553.374268	9103.875977		
2554.692871	9043.875977		
2556.011475	8969.173828		
2557.330078	8956.441406		
2558.648682	8978.09668		
2559.967285	8873.448242		
2561.285889	9021.110352		
2562.604492	9060.322266		
2563.923096	8978.079102		
2565.241699	8941.998047		
2566.560303	9009.65918		
2567.878906	8835.427734		
2569.19751	8861.666016		
2570.516113	8997.168945		
2571.834717	8958.076172		
2573.15332	8960.390625		
2574.471924	9150.772461		
2575.790527	8944.536133		
2577.109131	8958.605469		
2578.427734	9104.169922		
2579.746338	9045.842773		
2581.064941	9057.842773		
2582.383545	9011.320313		
2583.702148	9055.636719		
2585.020752	9099.824219		
2586.339355	8941.701172		
2587.657959	9098.888672		
2588.976563	8956.189453		
2590.295166	9023.865234		
2591.61377	9026.9375		
2592.932373	9060.130859		
2594.250977	8961.319336		
2595.56958	8919.422852		
2596.888184	8937.859375		
2598.206787	9049.996094		
2599.525391	8965.223633		
2600.843994	9217.011719		
2602.162598	9151.086914		
2603.481201	9091.399414		
2604.799805	9115.564453		
2606.118408	8988.558594		
2607.437012	9065.478516		
2608.755615	9067.973633		
2610.074219	9080.023438		
2611.392822	8950.564453		
2612.711426	9059.822266		
2614.030029	9110.863281		
2615.348633	9107.543945		
2616.667236	9037.308594		
2617.98584	9008.0625		
2619.304443	9111.374023		
2620.623047	9186.993164		
2621.94165	9225.869141		
2623.260254	9142.149414		
2624.578857	9190.836914		
2625.897461	8992.28418		
2627.216064	8986.933594		
2628.534668	9035.155273		
2629.853271	9137.894531		
2631.171875	9147.813477		
2632.490479	9222.797852		
2633.809082	9231.628906		
2635.127686	9017.609375		
2636.446289	9157.063477		
2637.764893	9172.87793		
2639.083496	9280.819336		
2640.4021	9233.351563		
2641.720703	9235.925781		
2643.039307	9147.308594		
2644.35791	9130.727539		
2645.676514	9204.895508		
2646.995117	9180.702148		
2648.313721	9264.385742		
2649.632324	9276.689453		
2650.950928	9152.630859		
2652.269531	9059.65918		
2653.588135	8912.525391		
2654.906738	9126.601563		
2656.225342	9202.438477		
2657.543945	9262.025391		
2658.862549	9125.027344		
2660.181152	9162.150391		
2661.499756	9130.946289		
2662.818359	9259.265625		
2664.136963	9156.918945		
2665.455566	9133.991211		
2666.77417	9156.464844		
2668.092773	9157.186523		
2669.411377	9112.236328		
2670.72998	9156.859375		
2672.048584	9208.547852		
2673.367188	9090.581055		
2674.685791	9254.257813		
2676.004395	9189.107422		
2677.322998	9175.023438		
2678.641602	9233.205078		
2679.960205	9206.582031		
2681.278809	9154.050781		
2682.597412	9108.076172		
2683.916016	9169.549805		
2685.234619	9169.463867		
2686.553223	9192.174805		
2687.871826	9209.03125		
2689.19043	9132.72168		
2690.509033	9147.255859		
2691.827637	9175.99707		
2693.14624	9171.476563		
2694.464844	9157.223633		
2695.783447	9165.012695		
2697.102051	9078.874023		
2698.420654	9191.970703		
2699.739258	9179.461914		
2701.057861	9102.34375		
2702.376465	9144.014648		
2703.695068	9295.612305		
2705.013672	9193.939453		
2706.332275	9152.099609		
2707.650879	9166.142578		
2708.969482	9130.029297		
2710.288086	9182.519531		
2711.606689	9192.617188		
2712.925293	9191.59375		
2714.243896	9270.677734		
2715.5625	9199.240234		
2716.881104	9225.557617		
2718.199707	9289.682617		
2719.518311	9114.018555		
2720.836914	9251.091797		
2722.155518	9290.604492		
2723.474121	9238.275391		
2724.792725	9194.529297		
2726.111328	9185.257813		
2727.429932	9103.272461		
2728.748535	9138.832031		
2730.067139	9204.379883		
2731.385742	9140.091797		
2732.704346	9068.733398		
2734.022949	9148.987305		
2735.341553	9231.594727		
2736.660156	9090.426758		
2737.97876	9292.787109		
2739.297363	9115.040039		
2740.615967	9253.880859		
2741.93457	9121.873047		
2743.253174	9196.611328		
2744.571777	9191.522461		
2745.890381	9264.62207		
2747.208984	9249.632813		
2748.527588	9205.819336		
2749.846191	9187.580078		
2751.164795	9284.829102		
2752.483398	9059.775391		
2753.802002	9201.1875		
2755.120605	9131.737305		
2756.439209	9179.823242		
2757.757813	9195.106445		
2759.076416	9139.824219		
2760.39502	9198.716797		
2761.713623	9209.760742		
2763.032227	9144.203125		
2764.35083	9207.599609		
2765.669434	9213.302734		
2766.988037	9240.876953		
2768.306641	9101.748047		
2769.625244	9209.480469		
2770.943848	9327.004883		
2772.262451	9155.508789		
2773.581055	9117.585938		
2774.899658	9244.089844		
2776.218262	9278.90918		
2777.536865	9239.362305		
2778.855469	9151.552734		
2780.174072	9112.473633		
2781.492676	9065.488281		
2782.811279	9300.62793		
2784.129883	9200.543945		
2785.448486	9341.114258		
2786.76709	9174.125977		
2788.085693	9121.611328		
2789.404297	9181.658203		
2790.7229	9280.841797		
2792.041504	9278.600586		
2793.360107	9207.84668		
2794.678711	9119.167969		
2795.997314	9157.014648		
2797.315918	9234.55957		
2798.634521	9256.802734		
2799.953125	9192.186523		
2801.271729	9163.841797		
2802.590332	9227.983398		
2803.908936	9314.998047		
2805.227539	9158.466797		
2806.546143	9132.050781		
2807.864746	9020.421875		
2809.18335	9293.083984		
2810.501953	9261.870117		
2811.820557	9172.373047		
2813.13916	9181.03418		
2814.457764	9176.828125		
2815.776367	9172.554688		
2817.094971	9288.166992		
2818.413574	9308.291992		
2819.732178	9292.884766		
2821.050781	9232.981445		
2822.369385	9217.916992		
2823.687988	9288.875		
2825.006592	9228.361328		
2826.325195	9096.294922		
2827.643799	9151.473633		
2828.962402	9194.587891		
2830.281006	9242.624023		
2831.599609	9342.602539		
2832.918213	9249.742188		
2834.236816	9309.842773		
2835.55542	9083.052734		
2836.874023	9215.617188		
2838.192627	9213.782227		
2839.51123	9251.444336		
2840.829834	9325.349609		
2842.148438	9456.507813		
2843.467041	9255.237305		
2844.785645	9213.824219		
2846.104248	9275.924805		
2847.422852	9251.354492		
2848.741455	9318.137695		
2850.060059	9133.132813		
2851.378662	9220.609375		
2852.697266	9342.265625		
2854.015869	9161.30957		
2855.334473	9276.294922		
2856.653076	9191.758789		
2857.97168	9319.776367		
2859.290283	9165.901367		
2860.608887	9262.053711		
2861.92749	9291.083984		
2863.246094	9295.135742		
2864.564697	9326.830078		
2865.883301	9199.438477		
2867.201904	9222.419922		
2868.520508	9288.705078		
2869.839111	9342.438477		
2871.157715	9237.897461		
2872.476318	9424.453125		
2873.794922	9217.000977		
2875.113525	9311.318359		
2876.432129	9235.114258		
2877.750732	9325.099609		
2879.069336	9388.410156		
2880.387939	9405.755859		
2881.706543	9326.464844		
2883.025146	9237.583008		
2884.34375	9174.950195		
2885.662354	9165.193359		
2886.980957	9266.988281		
2888.299561	9332.827148		
2889.618164	9298.681641		
2890.936768	9268.220703		
2892.255371	9273.916016		
2893.573975	9311.380859		
2894.892578	9350.214844		
2896.211182	9296.402344		
2897.529785	9488.178711		
2898.848389	9278.693359		
2900.166992	9280.417969		
2901.485596	9332.962891		
2902.804199	9289.853516		
2904.122803	9377.827148		
2905.441406	9384.345703		
2906.76001	9290.292969		
2908.078613	9350.583984		
2909.397217	9301.989258		
2910.71582	9158.02832		
2912.034424	9199.941406		
2913.353027	9283.68457		
2914.671631	9256.666992		
2915.990234	9253.865234		
2917.308838	9213.858398		
2918.627441	9351.597656		
2919.946045	9293.227539		
2921.264648	9318.561523		
2922.583252	9411.912109		
2923.901855	9339.702148		
2925.220459	9323.599609		
2926.539063	9202.65625		
2927.857666	9207.541992		
2929.17627	9281.891602		
2930.494873	9231.237305		
2931.813477	9289.335938		
2933.13208	9444.505859		
2934.450684	9250.082031		
2935.769287	9233.37207		
2937.087891	9355.320313		
2938.406494	9302.816406		
2939.725098	9319.054688		
2941.043701	9302.59375		
2942.362305	9375.302734		
2943.680908	9409.921875		
2944.999512	9301.554688		
2946.318115	9284.660156		
2947.636719	9307.935547		
2948.955322	9302.817383		
2950.273926	9416.082031		
2951.592529	9433.412109		
2952.911133	9397.109375		
2954.229736	9326.423828		
2955.54834	9444.632813		
2956.866943	9424.029297		
2958.185547	9404.4375		
2959.50415	9442.416016		
2960.822754	9553.444336		
2962.141357	9412.96875		
2963.459961	9276.703125		
2964.778564	9368.692383		
2966.097168	9403.875977		
2967.415771	9448.850586		
2968.734375	9347.983398		
2970.052979	9361.200195		
2971.371582	9306.326172		
2972.690186	9379.154297		
2974.008789	9290.084961		
2975.327393	9311.475586		
2976.645996	9318.207031		
2977.9646	9429.849609		
2979.283203	9342.665039		
2980.601807	9255.654297		
2981.92041	9407.305664		
2983.239014	9229.174805		
2984.557617	9355.242188		
2985.876221	9482.203125		
2987.194824	9357.461914		
2988.513428	9455.942383		
2989.832031	9232.823242		
2991.150635	9197.503906		
2992.469238	9352.826172		
2993.787842	9339.797852		
2995.106445	9303.814453		
2996.425049	9274.599609		
2997.743652	9358.429688		
2999.062256	9260.730469		
3000.380859	9234.155273		
